 # log(r) log(d) del_ad  del_el  del  del_rad  log(v)
   8.341234   2.078913      0.396858      2.126576      0.396858     231.02
   8.344567   2.078910      0.396858      2.126616      0.396858     231.61
   8.347901   2.078906      0.396858      2.126652      0.396858     232.21
   8.351234   2.078903      0.396858      2.126684      0.396858     232.80
   8.354568   2.078899      0.396858      2.126713      0.396858     233.40
   8.357901   2.078895      0.396858      2.126737      0.396858     234.00
   8.361235   2.078892      0.396858      2.126759      0.396858     234.59
   8.364568   2.078888      0.396858      2.126776      0.396858     235.20
   8.367902   2.078884      0.396858      2.126791      0.396858     235.80
   8.371235   2.078880      0.396858      2.126801      0.396858     236.40
   8.374569   2.078876      0.396858      2.126809      0.396858     237.01
   8.377902   2.078872      0.396858      2.126812      0.396858     237.61
   8.381236   2.078868      0.396858      2.126813      0.396858     238.22
   8.384570   2.078864      0.396858      2.126810      0.396858     238.83
   8.387903   2.078860      0.396858      2.126804      0.396858     239.44
   8.391237   2.078855      0.396858      2.126794      0.396858     240.05
   8.394571   2.078851      0.396858      2.126781      0.396858     240.66
   8.397904   2.078847      0.396858      2.126765      0.396858     241.28
   8.401238   2.078842      0.396858      2.126745      0.396858     241.89
   8.404572   2.078838      0.396858      2.126723      0.396858     242.51
   8.407906   2.078833      0.396858      2.126697      0.396858     243.13
   8.411240   2.078828      0.396858      2.126668      0.396858     243.75
   8.414574   2.078823      0.396858      2.126635      0.396858     244.37
   8.417907   2.078819      0.396858      2.126600      0.396858     244.99
   8.421241   2.078814      0.396858      2.126561      0.396858     245.62
   8.424575   2.078809      0.396858      2.126519      0.396858     246.24
   8.427909   2.078804      0.396858      2.126474      0.396858     246.87
   8.431243   2.078798      0.396858      2.126426      0.396858     247.50
   8.434577   2.078793      0.396858      2.126375      0.396858     248.13
   8.437911   2.078788      0.396858      2.126321      0.396858     248.76
   8.441245   2.078783      0.396858      2.126263      0.396858     249.39
   8.444579   2.078777      0.396858      2.126203      0.396858     250.03
   8.447914   2.078771      0.396858      2.126139      0.396858     250.66
   8.451248   2.078766      0.396858      2.126072      0.396858     251.30
   8.454582   2.078760      0.396858      2.126002      0.396858     251.94
   8.457916   2.078754      0.396858      2.125929      0.396858     252.58
   8.461250   2.078748      0.396858      2.125853      0.396858     253.22
   8.464585   2.078742      0.396858      2.125774      0.396858     253.86
   8.467919   2.078736      0.396858      2.125691      0.396858     254.51
   8.471253   2.078730      0.396858      2.125606      0.396858     255.15
   8.474587   2.078724      0.396858      2.125517      0.396858     255.80
   8.477922   2.078717      0.396858      2.125426      0.396858     256.45
   8.481256   2.078711      0.396858      2.125331      0.396858     257.10
   8.484591   2.078704      0.396858      2.125233      0.396858     257.75
   8.487925   2.078698      0.396858      2.125132      0.396858     258.41
   8.491259   2.078691      0.396858      2.125027      0.396858     259.06
   8.494594   2.078684      0.396858      2.124920      0.396858     259.72
   8.497928   2.078677      0.396858      2.124809      0.396858     260.37
   8.501263   2.078670      0.396858      2.124695      0.396858     261.03
   8.504597   2.078663      0.396858      2.124578      0.396858     261.69
   8.507932   2.078655      0.396857      2.124457      0.396857     262.35
   8.511267   2.078648      0.396857      2.124334      0.396857     263.02
   8.514601   2.078640      0.396857      2.124207      0.396857     263.68
   8.517936   2.078633      0.396857      2.124077      0.396857     264.35
   8.521271   2.078625      0.396857      2.123943      0.396857     265.02
   8.524605   2.078617      0.396857      2.123806      0.396857     265.69
   8.527940   2.078609      0.396857      2.123666      0.396857     266.36
   8.531275   2.078601      0.396857      2.123523      0.396857     267.03
   8.534610   2.078592      0.396857      2.123376      0.396857     267.70
   8.537945   2.078584      0.396857      2.123225      0.396857     268.38
   8.541279   2.078575      0.396857      2.123072      0.396857     269.05
   8.544614   2.078567      0.396857      2.122914      0.396857     269.73
   8.547949   2.078558      0.396857      2.122753      0.396857     270.41
   8.551284   2.078549      0.396857      2.122589      0.396857     271.09
   8.554619   2.078540      0.396857      2.122421      0.396857     271.77
   8.557954   2.078531      0.396857      2.122250      0.396857     272.46
   8.561289   2.078521      0.396857      2.122075      0.396857     273.14
   8.564624   2.078512      0.396857      2.121896      0.396857     273.83
   8.567959   2.078502      0.396857      2.121714      0.396857     274.52
   8.571295   2.078492      0.396857      2.121528      0.396857     275.21
   8.574630   2.078482      0.396857      2.121338      0.396857     275.90
   8.577965   2.078472      0.396857      2.121144      0.396857     276.59
   8.581300   2.078462      0.396857      2.120947      0.396857     277.29
   8.584636   2.078451      0.396857      2.120745      0.396857     277.98
   8.587971   2.078441      0.396857      2.120540      0.396857     278.68
   8.591306   2.078430      0.396857      2.120331      0.396857     279.38
   8.594642   2.078419      0.396857      2.120118      0.396857     280.08
   8.597977   2.078408      0.396857      2.119900      0.396857     280.78
   8.601313   2.078397      0.396857      2.119679      0.396857     281.48
   8.604648   2.078385      0.396857      2.119454      0.396857     282.19
   8.607984   2.078374      0.396857      2.119224      0.396857     282.89
   8.611319   2.078362      0.396857      2.118990      0.396857     283.60
   8.614655   2.078350      0.396857      2.118753      0.396857     284.31
   8.617991   2.078338      0.396857      2.118510      0.396857     285.02
   8.621326   2.078325      0.396857      2.118264      0.396857     285.73
   8.624662   2.078313      0.396857      2.118013      0.396857     286.44
   8.627998   2.078300      0.396857      2.117757      0.396857     287.16
   8.631334   2.078287      0.396857      2.117497      0.396857     287.88
   8.634669   2.078274      0.396857      2.117233      0.396857     288.59
   8.638005   2.078260      0.396857      2.116963      0.396857     289.31
   8.641341   2.078247      0.396857      2.116690      0.396857     290.03
   8.644677   2.078233      0.396857      2.116411      0.396857     290.75
   8.648013   2.078219      0.396857      2.116128      0.396857     291.48
   8.651349   2.078205      0.396857      2.115839      0.396857     292.20
   8.654686   2.078190      0.396857      2.115546      0.396857     292.93
   8.658022   2.078176      0.396857      2.115248      0.396857     293.66
   8.661358   2.078161      0.396857      2.114945      0.396857     294.39
   8.664694   2.078146      0.396857      2.114637      0.396857     295.12
   8.668031   2.078130      0.396857      2.114324      0.396857     295.85
   8.671367   2.078115      0.396857      2.114005      0.396857     296.58
   8.674703   2.078099      0.396857      2.113682      0.396857     297.32
   8.678040   2.078083      0.396857      2.113352      0.396857     298.05
   8.681376   2.078067      0.396857      2.113018      0.396857     298.79
   8.684713   2.078050      0.396857      2.112678      0.396857     299.53
   8.688050   2.078033      0.396857      2.112332      0.396857     300.27
   8.691386   2.078016      0.396856      2.111981      0.396856     301.01
   8.694723   2.077999      0.396856      2.111624      0.396856     301.75
   8.698060   2.077981      0.396856      2.111261      0.396856     302.50
   8.701397   2.077963      0.396856      2.110892      0.396856     303.24
   8.704734   2.077945      0.396856      2.110518      0.396856     303.99
   8.708071   2.077927      0.396856      2.110137      0.396856     304.74
   8.711408   2.077908      0.396856      2.109750      0.396856     305.49
   8.714745   2.077889      0.396856      2.109357      0.396856     306.24
   8.718082   2.077870      0.396856      2.108958      0.396856     306.99
   8.721419   2.077850      0.396856      2.108553      0.396856     307.75
   8.724756   2.077830      0.396856      2.108141      0.396856     308.50
   8.728094   2.077810      0.396856      2.107722      0.396856     309.26
   8.731431   2.077789      0.396856      2.107297      0.396856     310.02
   8.734769   2.077768      0.396856      2.106865      0.396856     310.78
   8.738106   2.077747      0.396856      2.106426      0.396856     311.54
   8.741444   2.077726      0.396856      2.105981      0.396856     312.30
   8.744781   2.077704      0.396856      2.105528      0.396856     313.06
   8.748119   2.077682      0.396856      2.105069      0.396856     313.83
   8.751457   2.077659      0.396856      2.104602      0.396856     314.59
   8.754795   2.077636      0.396856      2.104128      0.396856     315.36
   8.758133   2.077613      0.396856      2.103646      0.396856     316.13
   8.761471   2.077589      0.396856      2.103157      0.396856     316.90
   8.764809   2.077565      0.396856      2.102661      0.396856     317.67
   8.768147   2.077541      0.396856      2.102157      0.396856     318.44
   8.771485   2.077516      0.396856      2.101644      0.396856     319.22
   8.774823   2.077491      0.396856      2.101125      0.396856     319.99
   8.778162   2.077466      0.396856      2.100597      0.396856     320.77
   8.781500   2.077440      0.396856      2.100060      0.396856     321.54
   8.784839   2.077413      0.396856      2.099516      0.396856     322.32
   8.788178   2.077387      0.396855      2.098963      0.396855     323.10
   8.791516   2.077360      0.396855      2.098402      0.396855     323.88
   8.794855   2.077332      0.396855      2.097833      0.396855     324.66
   8.798194   2.077304      0.396855      2.097254      0.396855     325.44
   8.801533   2.077276      0.396855      2.096667      0.396855     326.23
   8.804872   2.077247      0.396855      2.096071      0.396855     327.01
   8.808211   2.077218      0.396855      2.095465      0.396855     327.80
   8.811550   2.077188      0.396855      2.094851      0.396855     328.59
   8.814890   2.077158      0.396855      2.094227      0.396855     329.37
   8.818229   2.077127      0.396855      2.093594      0.396855     330.16
   8.821569   2.077096      0.396855      2.092951      0.396855     330.95
   8.824908   2.077064      0.396855      2.092298      0.396855     331.74
   8.828248   2.077032      0.396855      2.091636      0.396855     332.54
   8.831588   2.076999      0.396855      2.090963      0.396855     333.33
   8.834928   2.076966      0.396855      2.090281      0.396855     334.12
   8.838268   2.076933      0.396855      2.089588      0.396855     334.92
   8.841608   2.076899      0.396855      2.088885      0.396855     335.72
   8.844948   2.076864      0.396855      2.088171      0.396855     336.51
   8.848289   2.076829      0.396855      2.087446      0.396855     337.31
   8.851629   2.076793      0.396855      2.086711      0.396855     338.11
   8.854970   2.076756      0.396854      2.085964      0.396855     338.91
   8.858310   2.076720      0.396854      2.085207      0.396854     339.71
   8.861651   2.076682      0.396854      2.084438      0.396854     340.51
   8.864992   2.076644      0.396854      2.083658      0.396854     341.31
   8.868333   2.076605      0.396854      2.082866      0.396854     342.12
   8.871674   2.076566      0.396854      2.082062      0.396854     342.92
   8.875016   2.076526      0.396854      2.081246      0.396854     343.72
   8.878357   2.076486      0.396854      2.080418      0.396854     344.53
   8.881699   2.076445      0.396854      2.079578      0.396854     345.34
   8.885040   2.076403      0.396854      2.078726      0.396854     346.14
   8.888382   2.076360      0.396854      2.077861      0.396854     346.95
   8.891724   2.076317      0.396854      2.076983      0.396854     347.76
   8.895066   2.076274      0.396854      2.076092      0.396854     348.57
   8.898408   2.076229      0.396854      2.075188      0.396854     349.38
   8.901750   2.076184      0.396854      2.074270      0.396854     350.19
   8.905093   2.076138      0.396853      2.073339      0.396854     351.00
   8.908436   2.076092      0.396853      2.072395      0.396853     351.81
   8.911778   2.076045      0.396853      2.071437      0.396853     352.62
   8.915121   2.075997      0.396853      2.070464      0.396853     353.43
   8.918464   2.075948      0.396853      2.069477      0.396853     354.25
   8.921808   2.075898      0.396853      2.068476      0.396853     355.06
   8.925151   2.075848      0.396853      2.067461      0.396853     355.87
   8.928494   2.075797      0.396853      2.066430      0.396853     356.69
   8.931838   2.075745      0.396853      2.065385      0.396853     357.50
   8.935182   2.075693      0.396853      2.064324      0.396853     358.31
   8.938526   2.075639      0.396853      2.063248      0.396853     359.13
   8.941870   2.075585      0.396853      2.062156      0.396853     359.94
   8.945214   2.075530      0.396852      2.061048      0.396853     360.76
   8.948559   2.075474      0.396852      2.059924      0.396853     361.58
   8.951904   2.075417      0.396852      2.058784      0.396852     362.39
   8.955248   2.075359      0.396852      2.057628      0.396852     363.21
   8.958594   2.075300      0.396852      2.056455      0.396852     364.02
   8.961939   2.075241      0.396852      2.055265      0.396852     364.84
   8.965284   2.075180      0.396852      2.054058      0.396852     365.66
   8.968630   2.075119      0.396852      2.052833      0.396852     366.47
   8.971976   2.075057      0.396852      2.051591      0.396852     367.29
   8.975322   2.074993      0.396852      2.050332      0.396852     368.10
   8.978668   2.074929      0.396852      2.049054      0.396852     368.92
   8.982014   2.074863      0.396851      2.047758      0.396852     369.74
   8.985361   2.074797      0.396851      2.046443      0.396851     370.55
   8.988707   2.074730      0.396851      2.045110      0.396851     371.37
   8.992054   2.074661      0.396851      2.043757      0.396851     372.18
   8.995402   2.074592      0.396851      2.042386      0.396851     373.00
   8.998749   2.074521      0.396851      2.040995      0.396851     373.81
   9.002097   2.074449      0.396851      2.039584      0.396851     374.63
   9.005445   2.074376      0.396851      2.038154      0.396851     375.44
   9.008793   2.074302      0.396851      2.036703      0.396851     376.25
   9.012141   2.074227      0.396850      2.035231      0.396851     377.07
   9.015490   2.074151      0.396850      2.033740      0.396850     377.88
   9.018838   2.074073      0.396850      2.032227      0.396850     378.69
   9.022188   2.073995      0.396850      2.030692      0.396850     379.50
   9.025537   2.073915      0.396850      2.029137      0.396850     380.31
   9.028886   2.073834      0.396850      2.027559      0.396850     381.12
   9.032236   2.073751      0.396850      2.025960      0.396850     381.93
   9.035586   2.073667      0.396850      2.024338      0.396850     382.74
   9.038937   2.073582      0.396849      2.022694      0.396850     383.55
   9.042287   2.073496      0.396849      2.021027      0.396849     384.35
   9.045638   2.073408      0.396849      2.019337      0.396849     385.16
   9.048989   2.073319      0.396849      2.017624      0.396849     385.96
   9.052340   2.073228      0.396849      2.015887      0.396849     386.77
   9.055692   2.073136      0.396849      2.014126      0.396849     387.57
   9.059044   2.073043      0.396848      2.012340      0.396849     388.37
   9.062396   2.072948      0.396848      2.010531      0.396849     389.17
   9.065749   2.072852      0.396848      2.008696      0.396848     389.97
   9.069102   2.072754      0.396848      2.006837      0.396848     390.77
   9.072455   2.072655      0.396848      2.004952      0.396848     391.56
   9.075808   2.072554      0.396848      2.003041      0.396848     392.36
   9.079162   2.072451      0.396848      2.001105      0.396848     393.15
   9.082516   2.072347      0.396847      1.999142      0.396848     393.94
   9.085871   2.072241      0.396847      1.997153      0.396848     394.73
   9.089226   2.072134      0.396847      1.995137      0.396847     395.52
   9.092581   2.072025      0.396847      1.993094      0.396847     396.31
   9.095936   2.071914      0.396847      1.991023      0.396847     397.09
   9.099292   2.071802      0.396846      1.988925      0.396847     397.87
   9.102648   2.071687      0.396846      1.986799      0.396847     398.65
   9.106005   2.071571      0.396846      1.984644      0.396847     399.43
   9.109361   2.071453      0.396846      1.982461      0.396846     400.21
   9.112719   2.071333      0.396846      1.980249      0.396846     400.98
   9.116076   2.071212      0.396846      1.978007      0.396846     401.75
   9.119434   2.071088      0.396845      1.975736      0.396846     402.52
   9.122793   2.070963      0.396845      1.973436      0.396846     403.29
   9.126151   2.070835      0.396845      1.971105      0.396845     404.05
   9.129510   2.070706      0.396845      1.968744      0.396845     404.82
   9.132870   2.070574      0.396845      1.966351      0.396845     405.58
   9.136230   2.070441      0.396844      1.963928      0.396845     406.33
   9.139590   2.070305      0.396844      1.961474      0.396845     407.09
   9.142951   2.070167      0.396844      1.958987      0.396844     407.84
   9.146313   2.070027      0.396844      1.956469      0.396844     408.59
   9.149674   2.069885      0.396843      1.953919      0.396844     409.33
   9.153036   2.069740      0.396843      1.951336      0.396844     410.07
   9.156399   2.069594      0.396843      1.948719      0.396844     410.81
   9.159762   2.069445      0.396843      1.946070      0.396843     411.55
   9.163126   2.069293      0.396842      1.943387      0.396843     412.28
   9.166490   2.069139      0.396842      1.940670      0.396843     413.01
   9.169854   2.068983      0.396842      1.937920      0.396843     413.73
   9.173219   2.068825      0.396842      1.935134      0.396843     414.45
   9.176584   2.068663      0.396841      1.932314      0.396842     415.17
   9.179950   2.068500      0.396841      1.929459      0.396842     415.89
   9.183317   2.068333      0.396841      1.926568      0.396842     416.60
   9.186684   2.068164      0.396841      1.923642      0.396842     417.30
   9.190051   2.067993      0.396840      1.920680      0.396841     418.00
   9.193420   2.067818      0.396840      1.917681      0.396841     418.70
   9.196788   2.067641      0.396840      1.914646      0.396841     419.40
   9.200157   2.067462      0.396839      1.911575      0.396841     420.08
   9.203527   2.067279      0.396839      1.908466      0.396840     420.77
   9.206897   2.067093      0.396839      1.905319      0.396840     421.45
   9.210268   2.066905      0.396839      1.902135      0.396840     422.12
   9.213640   2.066713      0.396838      1.898913      0.396839     422.79
   9.217012   2.066519      0.396838      1.895653      0.396839     423.46
   9.220385   2.066321      0.396838      1.892354      0.396839     424.12
   9.223758   2.066120      0.396837      1.889017      0.396839     424.77
   9.227132   2.065916      0.396837      1.885640      0.396838     425.42
   9.230507   2.065709      0.396837      1.882225      0.396838     426.07
   9.233882   2.065498      0.396836      1.878769      0.396838     426.71
   9.237258   2.065284      0.396836      1.875274      0.396837     427.34
   9.240634   2.065067      0.396836      1.871739      0.396837     427.97
   9.244012   2.064846      0.396835      1.868163      0.396837     428.59
   9.247390   2.064622      0.396835      1.864547      0.396837     429.21
   9.250768   2.064394      0.396834      1.860891      0.396836     429.82
   9.254148   2.064163      0.396834      1.857193      0.396836     430.42
   9.257528   2.063928      0.396834      1.853455      0.396836     431.02
   9.260909   2.063689      0.396833      1.849674      0.396835     431.61
   9.264290   2.063446      0.396833      1.845853      0.396835     432.20
   9.267673   2.063200      0.396833      1.841990      0.396835     432.77
   9.271056   2.062949      0.396832      1.838084      0.396834     433.35
   9.274440   2.062695      0.396832      1.834137      0.396834     433.91
   9.277825   2.062436      0.396831      1.830147      0.396834     434.47
   9.281210   2.062174      0.396831      1.826115      0.396833     435.02
   9.284597   2.061907      0.396830      1.822041      0.396833     435.56
   9.287984   2.061636      0.396830      1.817924      0.396832     436.10
   9.291372   2.061360      0.396829      1.813764      0.396832     436.62
   9.294761   2.061080      0.396829      1.809561      0.396832     437.15
   9.298151   2.060796      0.396829      1.805315      0.396831     437.66
   9.301542   2.060507      0.396828      1.801026      0.396831     438.16
   9.304934   2.060213      0.396828      1.796694      0.396831     438.66
   9.308326   2.059915      0.396827      1.792319      0.396830     439.15
   9.311720   2.059612      0.396827      1.787900      0.396830     439.63
   9.315115   2.059304      0.396826      1.783438      0.396829     440.10
   9.318510   2.058991      0.396826      1.778933      0.396829     440.56
   9.321907   2.058673      0.396825      1.774384      0.396829     441.02
   9.325304   2.058350      0.396825      1.769792      0.396828     441.46
   9.328703   2.058022      0.396824      1.765156      0.396828     441.90
   9.332102   2.057689      0.396823      1.760478      0.396827     442.33
   9.335503   2.057350      0.396823      1.755756      0.396827     442.75
   9.338905   2.057005      0.396822      1.750990      0.396826     443.15
   9.342308   2.056655      0.396822      1.746182      0.396826     443.55
   9.345712   2.056300      0.396821      1.741331      0.396826     443.94
   9.349117   2.055938      0.396821      1.736436      0.396825     444.32
   9.352523   2.055571      0.396820      1.731499      0.396825     444.69
   9.355931   2.055198      0.396819      1.726520      0.396824     445.05
   9.359339   2.054819      0.396819      1.721497      0.396824     445.40
   9.362749   2.054434      0.396818      1.716433      0.396823     445.74
   9.366160   2.054042      0.396817      1.711327      0.396823     446.07
   9.369572   2.053644      0.396817      1.706178      0.396822     446.39
   9.372986   2.053240      0.396816      1.700989      0.396822     446.70
   9.376401   2.052829      0.396815      1.695758      0.396821     446.99
   9.379817   2.052411      0.396815      1.690486      0.396821     447.28
   9.383235   2.051987      0.396814      1.685173      0.396820     447.55
   9.386654   2.051556      0.396813      1.679820      0.396820     447.82
   9.390074   2.051117      0.396813      1.674427      0.396819     448.07
   9.393496   2.050672      0.396812      1.668994      0.396819     448.31
   9.396919   2.050219      0.396811      1.663523      0.396818     448.54
   9.400344   2.049759      0.396810      1.658012      0.396818     448.75
   9.403770   2.049291      0.396810      1.652464      0.396817     448.96
   9.407197   2.048816      0.396809      1.646878      0.396817     449.15
   9.410626   2.048333      0.396808      1.641254      0.396816     449.33
   9.414057   2.047842      0.396807      1.635594      0.396816     449.50
   9.417489   2.047342      0.396806      1.629899      0.396815     449.66
   9.420923   2.046835      0.396805      1.624179      0.396807     449.80
   9.424359   2.046317      0.396805      1.618433      0.396796     449.93
   9.427796   2.045791      0.396804      1.612659      0.396796     450.05
   9.431235   2.045255      0.396803      1.606850      0.396795     450.16
   9.434676   2.044711      0.396802      1.601007      0.396795     450.25
   9.438118   2.044158      0.396801      1.595130      0.396794     450.33
   9.441562   2.043596      0.396800      1.589222      0.396794     450.40
   9.445008   2.043025      0.396799      1.583282      0.396793     450.45
   9.448456   2.042444      0.396798      1.577312      0.396793     450.49
   9.451906   2.041853      0.396797      1.571312      0.396792     450.52
   9.455358   2.041253      0.396796      1.565284      0.396791     450.53
   9.458812   2.040642      0.396795      1.559228      0.396790     450.53
   9.462268   2.040022      0.396794      1.553146      0.396790     450.52
   9.465725   2.039391      0.396793      1.547038      0.396789     450.49
   9.469185   2.038750      0.396792      1.540907      0.396788     450.45
   9.472647   2.038097      0.396790      1.534752      0.396787     450.39
   9.476111   2.037434      0.396789      1.528575      0.396786     450.32
   9.479578   2.036760      0.396788      1.522378      0.396785     450.23
   9.483046   2.036074      0.396787      1.516161      0.396784     450.14
   9.486517   2.035377      0.396786      1.509926      0.396783     450.02
   9.489990   2.034669      0.396785      1.503674      0.396782     449.89
   9.493465   2.033948      0.396783      1.497407      0.396781     449.75
   9.496943   2.033215      0.396782      1.491125      0.396780     449.60
   9.500423   2.032469      0.396781      1.484831      0.396779     449.43
   9.503906   2.031711      0.396779      1.478526      0.396777     449.24
   9.507391   2.030940      0.396778      1.472211      0.396776     449.04
   9.510879   2.030156      0.396777      1.465888      0.396775     448.83
   9.514369   2.029358      0.396775      1.459558      0.396774     448.60
   9.517862   2.028547      0.396774      1.453223      0.396772     448.36
   9.521358   2.027722      0.396773      1.446885      0.396771     448.11
   9.524856   2.026883      0.396771      1.440545      0.396770     447.83
   9.528357   2.026029      0.396770      1.434206      0.396768     447.55
   9.531861   2.025161      0.396768      1.427868      0.396767     447.25
   9.535368   2.024277      0.396767      1.421534      0.396765     446.94
   9.538878   2.023378      0.396765      1.415206      0.396764     446.61
   9.542391   2.022464      0.396763      1.408885      0.396762     446.27
   9.545907   2.021534      0.396762      1.402573      0.396761     445.91
   9.549426   2.020588      0.396760      1.396273      0.396759     445.55
   9.552949   2.019625      0.396758      1.389986      0.396757     445.16
   9.556474   2.018646      0.396757      1.383714      0.396756     444.77
   9.560003   2.017649      0.396755      1.377460      0.396754     444.36
   9.563535   2.016635      0.396753      1.371226      0.396752     443.93
   9.567071   2.015603      0.396751      1.365013      0.396751     443.50
   9.570610   2.014552      0.396749      1.358825      0.396749     443.05
   9.574153   2.013484      0.396747      1.352663      0.396747     442.59
   9.577699   2.012396      0.396745      1.346529      0.396745     442.11
   9.581249   2.011289      0.396744      1.340427      0.396743     441.62
   9.584803   2.010162      0.396741      1.334358      0.396741     441.12
   9.588360   2.009016      0.396739      1.328324      0.396739     440.61
   9.591922   2.007848      0.396737      1.322329      0.396737     440.08
   9.595487   2.006660      0.396735      1.316375      0.396735     439.55
   9.599057   2.005451      0.396733      1.310464      0.396733     439.00
   9.602631   2.004220      0.396731      1.304599      0.396730     438.44
   9.606209   2.002966      0.396729      1.298783      0.396728     437.87
   9.609791   2.001690      0.396726      1.293018      0.396726     437.29
   9.613378   2.000391      0.396724      1.287307      0.396724     436.70
   9.616969   1.999068      0.396721      1.281653      0.396721     436.10
   9.620565   1.997721      0.396719      1.276058      0.396719     435.48
   9.624166   1.996349      0.396716      1.270527      0.396716     434.86
   9.627771   1.994952      0.396714      1.265061      0.396714     434.23
   9.631381   1.993530      0.396711      1.259663      0.396711     433.59
   9.634996   1.992081      0.396709      1.254337      0.396708     432.95
   9.638616   1.990605      0.396706      1.249086      0.396706     432.29
   9.642242   1.989102      0.396703      1.243912      0.396703     431.63
   9.645872   1.987571      0.396700      1.238820      0.396700     430.96
   9.649508   1.986012      0.396697      1.233812      0.396697     430.28
   9.653150   1.984423      0.396694      1.228892      0.396694     429.59
   9.656797   1.982804      0.396691      1.224064      0.396691     428.90
   9.660450   1.981154      0.396688      1.219329      0.396688     428.21
   9.664109   1.979474      0.396685      1.214694      0.396685     427.50
   9.667774   1.977761      0.396682      1.210160      0.396682     426.80
   9.671445   1.976016      0.396679      1.205731      0.396679     426.09
   9.675122   1.974237      0.396675      1.201413      0.396675     425.37
   9.678806   1.972424      0.396672      1.197207      0.396672     424.66
   9.682496   1.970576      0.396668      1.193119      0.396668     423.94
   9.686193   1.968692      0.396665      1.189153      0.396665     423.21
   9.689896   1.966771      0.396661      1.185313      0.396661     422.49
   9.693607   1.964813      0.396657      1.181603      0.396657     421.77
   9.697325   1.962817      0.396653      1.178027      0.396653     421.04
   9.701050   1.960781      0.396649      1.174591      0.396649     420.32
   9.704782   1.958704      0.396645      1.171299      0.396645     419.59
   9.708522   1.956587      0.396641      1.168156      0.396641     418.87
   9.712270   1.954427      0.396637      1.165168      0.396637     418.15
   9.716026   1.952224      0.396633      1.162339      0.396633     417.43
   9.719791   1.949976      0.396628      1.159675      0.396628     416.71
   9.723563   1.947683      0.396624      1.157182      0.396624     416.00
   9.727344   1.945343      0.396619      1.154866      0.396619     415.30
   9.731134   1.942955      0.396615      1.152732      0.396615     414.60
   9.734933   1.940518      0.396610      1.150789      0.396610     413.90
   9.738741   1.938030      0.396605      1.149042      0.396605     413.21
   9.742559   1.935491      0.396600      1.147498      0.396600     412.53
   9.746386   1.932899      0.396594      1.146166      0.396594     411.86
   9.750223   1.930252      0.396589      1.145052      0.396589     411.20
   9.754070   1.927549      0.396584      1.144165      0.396584     410.54
   9.757928   1.924788      0.396578      1.143515      0.396578     409.90
   9.761796   1.921968      0.396572      1.143109      0.396572     409.27
   9.765676   1.919088      0.396566      1.142958      0.396566     408.65
   9.769566   1.916145      0.396560      1.143073      0.396560     408.04
   9.773468   1.913138      0.396554      1.143463      0.396554     407.45
   9.777382   1.910064      0.396548      1.144141      0.396548     406.87
   9.781309   1.906923      0.396541      1.145119      0.396541     406.31
   9.785247   1.903712      0.396535      1.146409      0.396535     405.77
   9.789199   1.900428      0.396528      1.148027      0.396528     405.24
   9.793163   1.897070      0.396521      1.149987      0.396521     404.73
   9.797141   1.893636      0.396513      1.152409      0.396513     404.25
   9.801134   1.890123      0.396506      1.155226      0.396506     403.79
   9.805140   1.886529      0.396498      1.158440      0.396498     403.35
   9.809161   1.882850      0.396490      1.162071      0.396490     402.93
   9.813198   1.879085      0.396482      1.166139      0.396482     402.54
   9.817249   1.875231      0.396474      1.170667      0.396474     402.17
   9.821318   1.871285      0.396465      1.175678      0.396465     401.82
   9.825402   1.867243      0.396456      1.181200      0.396456     401.51
   9.829504   1.863103      0.396447      1.187259      0.396447     401.22
   9.833623   1.858861      0.396438      1.193887      0.396438     400.96
   9.837761   1.854513      0.396428      1.201115      0.396428     400.73
   9.841917   1.850056      0.396418      1.208979      0.396418     400.54
   9.846092   1.845487      0.396408      1.217518      0.396408     400.38
   9.850288   1.840800      0.396397      1.226773      0.396397     400.25
   9.854504   1.835992      0.396386      1.236790      0.396386     400.15
   9.858741   1.831057      0.396375      1.247618      0.396375     400.10
   9.863001   1.825993      0.396363      1.259311      0.396363     400.08
   9.867283   1.820792      0.396351      1.271928      0.396351     400.10
   9.871589   1.815450      0.396339      1.285533      0.396339     400.16
   9.875919   1.809962      0.396326      1.300197      0.396326     400.27
   9.880275   1.804320      0.396312      1.315996      0.396312     400.42
   9.884657   1.798520      0.396299      1.333015      0.396299     400.61
   9.889067   1.792553      0.396284      1.351349      0.396284     400.86
   9.893389   1.786575      0.396270      1.370569      0.396270     401.14
   9.897619   1.780597      0.396255      1.390651      0.396255     401.46
   9.901761   1.774619      0.396241      1.411605      0.396241     401.82
   9.905818   1.768641      0.396226      1.433444      0.396226     402.22
   9.909793   1.762664      0.396211      1.456182      0.396211     402.65
   9.913689   1.756687      0.396196      1.479834      0.396196     403.11
   9.917509   1.750710      0.396181      1.504414      0.396181     403.60
   9.921256   1.744733      0.396166      1.529901      0.396166     404.11
   9.924931   1.738756      0.396151      1.556153      0.396151     404.65
   9.928539   1.732779      0.396135      1.583377      0.396135     405.22
   9.932080   1.726803      0.396120      1.611594      0.396120     405.81
   9.935558   1.720827      0.396104      1.640828      0.396104     406.42
   9.938974   1.714851      0.396089      1.671101      0.396089     407.06
   9.942330   1.708875      0.396073      1.702437      0.396073     407.71
   9.945628   1.702900      0.396057      1.734864      0.396057     408.39
   9.948869   1.696924      0.396041      1.768407      0.396041     409.09
   9.952057   1.690949      0.396025      1.803095      0.396025     409.81
   9.955191   1.684974      0.396009      1.839226      0.396009     410.55
   9.958274   1.679000      0.395993      1.876591      0.395993     411.31
   9.961307   1.673025      0.395976      1.915220      0.395976     412.09
   9.964292   1.667051      0.395960      1.955147      0.395960     412.89
   9.967230   1.661077      0.395943      1.996408      0.395943     413.69
   9.970122   1.655103      0.395927      2.039040      0.395927     414.52
   9.972970   1.649129      0.395910      2.083080      0.395910     415.36
   9.975774   1.643155      0.395893      2.128567      0.395893     416.21
   9.978536   1.637182      0.395876      2.175543      0.395876     417.08
   9.981257   1.631209      0.395859      2.224050      0.395859     417.96
   9.983938   1.625236      0.395842      2.274131      0.395842     418.85
   9.986580   1.619263      0.395825      2.325831      0.395825     419.75
   9.989183   1.613291      0.395807      2.379198      0.395807     420.67
   9.991750   1.607318      0.395790      2.434279      0.395790     421.59
   9.994281   1.601346      0.395772      2.491125      0.395772     422.53
   9.996776   1.595375      0.395755      2.549787      0.395755     423.48
   9.999237   1.589403      0.395737      2.610222      0.395737     424.43
  10.001664   1.583432      0.395719      2.672396      0.395719     425.37
  10.004058   1.577460      0.395701      2.736566      0.395701     426.33
  10.006420   1.571489      0.395683      2.802788      0.395683     427.30
  10.008750   1.565519      0.395665      2.871120      0.395665     428.28
  10.011050   1.559548      0.395647      2.941623      0.395647     429.27
  10.013319   1.553578      0.395628      3.014360      0.395628     430.28
  10.015559   1.547608      0.395610      3.089395      0.395610     431.29
  10.017771   1.541638      0.395591      3.166795      0.395591     432.31
  10.019954   1.535668      0.395573      3.246630      0.395573     433.34
  10.022109   1.529698      0.395554      3.328971      0.395554     434.38
  10.024238   1.523729      0.395535      3.413892      0.395535     435.43
  10.026340   1.517760      0.395516      3.501469      0.395516     436.49
  10.028416   1.511791      0.395497      3.591782      0.395497     437.56
  10.030466   1.505823      0.395478      3.684912      0.395478     438.64
  10.032492   1.499855      0.395459      3.780942      0.395459     439.72
  10.034493   1.493887      0.395439      3.879960      0.395439     440.82
  10.036470   1.487919      0.395420      3.982052      0.395420     441.92
  10.038424   1.481951      0.395400      4.087312      0.395400     443.03
  10.040354   1.475984      0.395381      4.195834      0.395381     444.15
  10.042262   1.470016      0.395361      4.307718      0.395361     445.28
  10.044148   1.464050      0.395341      4.423063      0.395341     446.41
  10.046011   1.458083      0.395321      4.541975      0.395321     447.56
  10.047854   1.452116      0.395301      4.664561      0.395301     448.71
  10.049675   1.446150      0.395281      4.790933      0.395281     449.87
  10.051475   1.440184      0.395261      4.921635      0.395261     451.04
  10.053255   1.434218      0.395241      5.056613      0.395241     452.21
  10.055016   1.428253      0.395220      5.195735      0.395220     453.40
  10.056756   1.422288      0.395200      5.339120      0.395200     454.59
  10.058477   1.416323      0.395179      5.486888      0.395179     455.79
  10.060180   1.410358      0.395159      5.639166      0.395159     457.00
  10.061863   1.404393      0.395138      5.796082      0.395138     458.21
  10.063528   1.398429      0.395117      5.957768      0.395117     459.43
  10.065176   1.392465      0.395096      6.124362      0.395096     460.67
  10.066805   1.386501      0.395075      6.296004      0.395075     461.90
  10.068417   1.380538      0.395054      6.472839      0.395054     463.15
  10.070011   1.374575      0.395033      6.655016      0.395033     464.40
  10.071589   1.368611      0.395012      6.842689      0.395012     465.67
  10.073150   1.362649      0.394990      7.036015      0.394990     466.94
  10.074695   1.356686      0.394969      7.235159      0.394969     468.21
  10.076223   1.350724      0.394947      7.440288      0.394947     469.50
  10.077736   1.344762      0.394925      7.651575      0.394925     470.79
  10.079232   1.338800      0.394904      7.869202      0.394904     472.10
  10.080714   1.332839      0.394882      8.093364      0.394882     473.41
  10.082180   1.326877      0.394860      8.324252      0.394860     474.72
  10.083631   1.320916      0.394838      8.562064      0.394838     476.05
  10.085067   1.314956      0.394816      8.807003      0.394816     477.38
  10.086489   1.308995      0.394794      9.059278      0.394794     478.73
  10.087896   1.303035      0.394771      9.319104      0.394771     480.08
  10.089289   1.297075      0.394749      9.586705      0.394749     481.44
  10.090668   1.291115      0.394727      9.862382      0.394727     482.81
  10.092034   1.285156      0.394704     10.146479      0.394704     484.18
  10.093385   1.279197      0.394681     10.439101      0.394681     485.57
  10.094724   1.273238      0.394659     10.740499      0.394659     486.96
  10.096049   1.267280      0.394636     11.050930      0.394636     488.37
  10.097361   1.261321      0.394613     11.370661      0.394613     489.78
  10.098660   1.255363      0.394590     11.699963      0.394590     491.20
  10.099947   1.249405      0.394567     12.039116      0.394567     492.63
  10.101221   1.243448      0.394544     12.388402      0.394544     494.07
  10.102482   1.237491      0.394521     12.748110      0.394521     495.52
  10.103731   1.231534      0.394498     13.118545      0.394498     496.97
  10.104969   1.225577      0.394474     13.500015      0.394474     498.44
  10.106194   1.219621      0.394451     13.892841      0.394451     499.91
  10.107408   1.213665      0.394428     14.297351      0.394428     501.40
  10.108610   1.207709      0.394404     14.713881      0.394404     502.89
  10.109800   1.201753      0.394381     15.142778      0.394381     504.39
  10.110980   1.195798      0.394357     15.584397      0.394357     505.91
  10.112148   1.189843      0.394333     16.039103      0.394333     507.43
  10.113305   1.183888      0.394309     16.507271      0.394309     508.96
  10.114451   1.177934      0.394286     16.989286      0.394286     510.50
  10.115586   1.171980      0.394262     17.485544      0.394262     512.05
  10.116711   1.166026      0.394238     17.996450      0.394238     513.61
  10.117825   1.160072      0.394214     18.522422      0.394214     515.18
  10.118928   1.154119      0.394190     19.063887      0.394190     516.76
  10.120022   1.148166      0.394165     19.621286      0.394165     518.35
  10.121105   1.142213      0.394141     20.195069      0.394141     519.94
  10.122178   1.136261      0.394117     20.792812      0.394117     521.55
  10.123242   1.130309      0.394093     21.408463      0.394093     523.17
  10.124295   1.124357      0.394068     22.042199      0.394068     524.80
  10.125339   1.118405      0.394044     22.694447      0.394044     526.44
  10.126373   1.112454      0.394019     23.365645      0.394019     528.09
  10.127397   1.106503      0.393995     24.056233      0.393995     529.75
  10.128413   1.100553      0.393970     24.766658      0.393970     531.42
  10.129419   1.094602      0.393946     25.497369      0.393946     533.10
  10.130416   1.088652      0.393921     26.248824      0.393921     534.79
  10.131403   1.082702      0.393896     27.021484      0.393896     536.49
  10.132382   1.076753      0.393872     27.815817      0.393872     538.20
  10.133352   1.070804      0.393847     28.632293      0.393847     539.93
  10.134313   1.064855      0.393822     29.471390      0.393822     541.66
  10.135265   1.058906      0.393797     30.333591      0.393797     543.40
  10.136209   1.052958      0.393773     31.219383      0.393773     545.15
  10.137144   1.047010      0.393748     32.129260      0.393748     546.92
  10.138071   1.041063      0.393723     33.063721      0.393723     548.69
  10.138990   1.035115      0.393698     34.023271      0.393698     550.47
  10.139900   1.029168      0.393673     35.008421      0.393673     552.27
  10.140802   1.023221      0.393648     36.019688      0.393648     554.07
  10.141696   1.017275      0.393623     37.057597      0.393623     555.89
  10.142582   1.011329      0.393598     38.122678      0.393598     557.72
  10.143460   1.005383      0.393573     39.215470      0.393573     559.56
  10.144331   0.999438      0.393548     40.336518      0.393548     561.41
  10.145193   0.993492      0.393523     41.486339      0.393523     563.27
  10.146048   0.987548      0.393498     42.641767      0.393498     565.14
  10.146895   0.981603      0.393473     43.808365      0.393473     567.02
  10.147735   0.975659      0.393448     45.004414      0.393448     568.91
  10.148567   0.969715      0.393423     46.230937      0.393423     570.82
  10.149392   0.963771      0.393398     47.489001      0.393398     572.73
  10.150210   0.957828      0.393373     48.779718      0.393373     574.66
  10.151020   0.951885      0.393348     50.104245      0.393348     576.60
  10.151823   0.945942      0.393323     51.463788      0.393323     578.55
  10.152620   0.939999      0.393299     52.859602      0.393299     580.51
  10.153409   0.934057      0.393274     54.292990      0.393274     582.49
  10.154191   0.928116      0.393249     55.765303      0.393249     584.47
  10.154966   0.922174      0.393224     57.277947      0.393224     586.47
  10.155735   0.916233      0.393199     58.832375      0.393199     588.48
  10.156496   0.910292      0.393174     60.430094      0.393174     590.50
  10.157251   0.904351      0.393150     62.072661      0.393150     592.53
  10.158000   0.898411      0.393125     63.761686      0.393125     594.58
  10.158742   0.892471      0.393100     65.498831      0.393100     596.63
  10.159477   0.886532      0.393076     67.285808      0.393076     598.70
  10.160206   0.880592      0.393051     69.124381      0.393051     600.79
  10.160929   0.874653      0.393027     71.016365      0.393027     602.88
  10.161645   0.868714      0.393002     72.963622      0.393002     604.99
  10.162355   0.862776      0.392978     74.968064      0.392978     607.10
  10.163058   0.856838      0.392954     77.031647      0.392954     609.24
  10.163756   0.850900      0.392930     79.156373      0.392930     611.38
  10.164448   0.844963      0.392905     81.344283      0.392905     613.53
  10.165133   0.838567      0.391757     83.571186      0.391757     615.33
  10.165814   0.832613      0.391735     85.877483      0.391735     617.52
  10.166488   0.826659      0.391717     88.251796      0.391717     619.72
  10.167157   0.820706      0.391703     90.695910      0.391703     621.94
  10.167819   0.814753      0.391692     93.212292      0.391692     624.17
  10.168476   0.808801      0.391686     95.803547      0.391686     626.42
  10.169127   0.802850      0.391683     98.472427      0.391683     628.68
  10.169773   0.796899      0.391683    101.221843      0.391683     630.95
  10.170413   0.790948      0.391686    104.054871      0.391686     633.24
  10.171047   0.784999      0.391690    106.974769      0.391690     635.55
  10.171676   0.779050      0.391696    109.984988      0.391696     637.86
  10.172300   0.773102      0.391703    113.089188      0.391703     640.20
  10.172918   0.767154      0.391710    116.291253      0.391710     642.54
  10.173531   0.761207      0.391717    119.619626      0.391717     644.89
  10.174138   0.755261      0.391723    123.097655      0.391723     647.26
  10.174741   0.749316      0.391727    126.688553      0.391727     649.65
  10.175338   0.743371      0.391730    130.394380      0.391730     652.04
  10.175929   0.737427      0.391731    134.217107      0.391731     654.45
  10.176516   0.731483      0.391731    138.158663      0.391731     656.86
  10.177098   0.725540      0.391728    142.220833      0.391728     659.30
  10.177674   0.719597      0.391724    146.405250      0.391724     661.74
  10.178246   0.713655      0.391718    150.713377      0.391718     664.19
  10.178813   0.707713      0.391710    155.146491      0.391710     666.66
  10.179375   0.701772      0.391702    159.705665      0.391702     669.14
  10.179931   0.695831      0.391693    164.391756      0.391693     671.64
  10.180484   0.689890      0.391684    169.205382      0.391684     674.14
  10.181031   0.683950      0.391676    174.087556      0.391676     676.67
  10.181573   0.678010      0.391668    179.057202      0.391668     679.20
  10.182111   0.672071      0.391662    184.154901      0.391662     681.75
  10.182645   0.666132      0.391658    189.384382      0.391658     684.32
  10.183173   0.660194      0.391656    194.749516      0.391656     686.90
  10.183697   0.654256      0.391657    200.254303      0.391657     689.49
  10.184217   0.648319      0.391659    205.902879      0.391659     692.10
  10.184732   0.642382      0.391662    211.699510      0.391662     694.73
  10.185242   0.636446      0.391667    217.648586      0.391667     697.37
  10.185748   0.630510      0.391673    223.754624      0.391673     700.03
  10.186250   0.624575      0.391679    230.022261      0.391679     702.70
  10.186748   0.618640      0.391684    236.456256      0.391684     705.38
  10.187241   0.612707      0.391688    243.061490      0.391688     708.08
  10.187730   0.606773      0.391692    249.776413      0.391692     710.79
  10.188214   0.600840      0.391693    256.658213      0.391693     713.51
  10.188694   0.594908      0.391693    263.727327      0.391693     716.25
  10.189171   0.588976      0.391690    270.992667      0.391690     719.00
  10.189643   0.583044      0.391686    278.463694      0.391686     721.76
  10.190111   0.577113      0.391680    286.150448      0.391680     724.54
  10.190575   0.571182      0.391672    294.063576      0.391672     727.33
  10.191035   0.565251      0.391662    302.214366      0.391662     730.14
  10.191490   0.559321      0.391650    310.614776      0.391650     732.96
  10.191942   0.553390      0.391637    319.277474      0.391637     735.79
  10.192390   0.547460      0.391623    328.215869      0.391623     738.64
  10.192835   0.541530      0.391608    337.444152      0.391608     741.50
  10.193275   0.535601      0.391592    346.994914      0.391592     744.38
  10.193711   0.529671      0.391576    357.083108      0.391576     747.27
  10.194144   0.523742      0.391560    367.513356      0.391560     750.18
  10.194573   0.517812      0.391545    378.293979      0.391545     753.10
  10.194998   0.511883      0.391530    389.433157      0.391530     756.04
  10.195419   0.505954      0.391516    400.938885      0.391516     759.00
  10.195837   0.500024      0.391504    412.818932      0.391504     761.97
  10.196251   0.494096      0.391494    425.080190      0.391494     764.96
  10.196662   0.488167      0.391485    437.729095      0.391485     767.96
  10.197069   0.482238      0.391478    450.772213      0.391478     770.99
  10.197472   0.476310      0.391472    464.215633      0.391472     774.03
  10.197872   0.470381      0.391469    478.064884      0.391469     777.08
  10.198269   0.464453      0.391467    492.324863      0.391467     780.16
  10.198661   0.458525      0.391466    506.965588      0.391466     783.25
  10.199051   0.452598      0.391467    521.939605      0.391467     786.36
  10.199437   0.446670      0.391469    537.326198      0.391469     789.48
  10.199820   0.440743      0.391471    553.131815      0.391471     792.62
  10.200199   0.434816      0.391473    569.363025      0.391473     795.78
  10.200575   0.428889      0.391475    586.026552      0.391475     798.95
  10.200948   0.422962      0.391477    603.129323      0.391477     802.14
  10.201318   0.417035      0.391479    620.678513      0.391479     805.35
  10.201684   0.411109      0.391479    638.681606      0.391479     808.57
  10.202047   0.405182      0.391479    657.146460      0.391479     811.81
  10.202407   0.399256      0.391477    676.081370      0.391477     815.06
  10.202764   0.393330      0.391474    695.495156      0.391474     818.33
  10.203118   0.387403      0.391469    715.397239      0.391469     821.62
  10.203468   0.381477      0.391463    735.705480      0.391463     824.92
  10.203816   0.375550      0.391455    756.450448      0.391455     828.24
  10.204160   0.369623      0.391446    777.733261      0.391446     831.57
  10.204502   0.363696      0.391434    799.573427      0.391434     834.92
  10.204840   0.357769      0.391421    821.990893      0.391421     838.28
  10.205176   0.351842      0.391406    845.005991      0.391406     841.67
  10.205508   0.345914      0.391389    868.639392      0.391389     845.06
  10.205838   0.339986      0.391371    892.912046      0.391371     848.48
  10.206165   0.334057      0.391351    917.845139      0.391351     851.91
  10.206489   0.328128      0.391330    943.463737      0.391330     855.36
  10.206810   0.322198      0.391308    969.792340      0.391308     858.82
  10.207128   0.316268      0.391286    996.853094      0.391286     862.31
  10.207444   0.310338      0.391263   1024.668047      0.391263     865.81
  10.207756   0.304407      0.391239   1053.177453      0.391239     869.33
  10.208066   0.298475      0.391216   1082.430686      0.391216     872.86
  10.208373   0.292543      0.391192   1112.474610      0.391192     876.42
  10.208678   0.286610      0.391169   1143.336221      0.391169     879.99
  10.208980   0.280676      0.391147   1175.044981      0.391147     883.59
  10.209279   0.274742      0.391125   1207.633064      0.391125     887.20
  10.209575   0.268808      0.391103   1241.135620      0.391103     890.83
  10.209869   0.262872      0.391081   1275.591064      0.391081     894.48
  10.210161   0.256936      0.391060   1311.041382      0.391060     898.15
  10.210450   0.251000      0.391038   1347.532469      0.391038     901.83
  10.210736   0.245062      0.391016   1385.113182      0.391016     905.54
  10.211020   0.239124      0.390993   1423.835666      0.390993     909.27
  10.211301   0.233186      0.390968   1463.759298      0.390968     913.01
  10.211580   0.227246      0.390943   1505.941772      0.390943     916.77
  10.211856   0.221306      0.390915   1549.545085      0.390915     920.55
  10.212130   0.215365      0.390885   1594.580636      0.390885     924.35
  10.212401   0.209423      0.390853   1641.084827      0.390853     928.16
  10.212670   0.203480      0.390818   1689.093159      0.390818     931.99
  10.212937   0.197535      0.390779   1738.640004      0.390779     935.84
  10.213201   0.191590      0.390738   1789.758364      0.390738     939.71
  10.213463   0.185644      0.390693   1842.479610      0.390693     943.60
  10.213723   0.179696      0.390645   1896.833199      0.390645     947.50
  10.213981   0.173747      0.390593   1952.846368      0.390593     951.42
  10.214236   0.167797      0.390537   2010.543810      0.390537     955.36
  10.214489   0.161846      0.390477   2069.947318      0.390477     959.31
  10.214740   0.155892      0.390413   2130.888745      0.390413     963.28
  10.214988   0.149938      0.390344   2192.659796      0.390344     967.27
  10.215234   0.143981      0.390271   2256.133178      0.390271     971.28
  10.215478   0.138023      0.390193   2321.359810      0.390193     975.30
  10.215720   0.132063      0.390111   2388.393546      0.390111     979.34
  10.215960   0.126101      0.390023   2457.291429      0.390023     983.40
  10.216198   0.120138      0.389930   2528.113950      0.389931     987.47
  10.216434   0.114172      0.389833   2600.925338      0.389833     991.56
  10.216667   0.108204      0.389729   2675.793859      0.389730     995.67
  10.216899   0.102233      0.389621   2752.792149      0.389621     999.80
  10.217128   0.096261      0.389506   2831.997554      0.389507    1003.94
  10.217356   0.090286      0.389386   2913.492510      0.389387    1008.10
  10.217581   0.084308      0.389261   2997.364932      0.389261    1012.28
  10.217805   0.078329      0.389129   3083.661124      0.389129    1016.47
  10.218027   0.072346      0.388991   3172.442038      0.388991    1020.68
  10.218246   0.066361      0.388848   3263.906225      0.388848    1024.91
  10.218464   0.060373      0.388698   3358.173431      0.388698    1029.16
  10.218680   0.054382      0.388542   3455.371396      0.388542    1033.42
  10.218893   0.048388      0.388381   3555.636394      0.388381    1037.70
  10.219105   0.042392      0.388213   3659.113803      0.388213    1042.00
  10.219316   0.036392      0.388039   3765.958699      0.388039    1046.32
  10.219524   0.030389      0.387860   3876.336492      0.387860    1050.65
  10.219730   0.024383      0.387674   3990.423583      0.387674    1055.01
  10.219935   0.018374      0.387483   4108.408060      0.387483    1059.38
  10.220138   0.012362      0.387285   4230.490427      0.387285    1063.77
  10.220339   0.006346      0.387082   4356.884362      0.387082    1068.17
  10.220538   0.000328      0.386873   4489.326924      0.386873    1072.60
  10.220736  -0.005694      0.386657   4628.352818      0.386657    1077.04
  10.220932  -0.011720      0.386435   4772.458965      0.386436    1081.50
  10.221126  -0.017749      0.386207   4921.782035      0.386207    1085.98
  10.221319  -0.023781      0.385973   5076.456667      0.385973    1090.48
  10.221510  -0.029817      0.385731   5236.614831      0.385731    1094.99
  10.221699  -0.035856      0.385483   5402.385176      0.385483    1099.53
  10.221886  -0.041898      0.385227   5573.892346      0.385227    1104.08
  10.222072  -0.047944      0.384963   5751.256258      0.384963    1108.64
  10.222256  -0.053994      0.384692   5934.591361      0.384692    1113.23
  10.222439  -0.060047      0.384413   6124.005857      0.384413    1117.83
  10.222620  -0.066104      0.384125   6319.600912      0.384125    1122.44
  10.222800  -0.072164      0.383828   6521.469831      0.383829    1127.08
  10.222978  -0.078228      0.383523   6729.178464      0.383523    1131.73
  10.223154  -0.084296      0.383209   6942.771236      0.383209    1136.39
  10.223329  -0.090367      0.382886   7162.857664      0.382886    1141.07
  10.223502  -0.096442      0.382554   7389.534190      0.382554    1145.77
  10.223674  -0.102520      0.382213   7622.889867      0.382213    1150.48
  10.223845  -0.108602      0.381863   7863.005696      0.381863    1155.21
  10.224014  -0.114688      0.381504   8109.953959      0.381504    1159.96
  10.224181  -0.120778      0.381136   8363.797535      0.381136    1164.72
  10.224347  -0.126871      0.380761   8624.589218      0.380761    1169.49
  10.224512  -0.132967      0.380377   8892.371018      0.380377    1174.29
  10.224675  -0.139067      0.379986   9167.173462      0.379986    1179.10
  10.224837  -0.145171      0.379588   9449.014873      0.379588    1183.93
  10.224997  -0.151278      0.379184   9737.900647      0.379184    1188.78
  10.225156  -0.157388      0.378774  10031.398574      0.378774    1193.64
  10.225314  -0.163501      0.378358  10327.923933      0.378358    1198.53
  10.225470  -0.169618      0.377938  10631.330289      0.377938    1203.44
  10.225625  -0.175738      0.377515  10941.813041      0.377515    1208.36
  10.225779  -0.181860      0.377088  11259.580513      0.377088    1213.31
  10.225931  -0.187985      0.376659  11583.658785      0.376660    1218.28
  10.226082  -0.194113      0.376229  11914.469976      0.376229    1223.28
  10.226232  -0.200243      0.375799  12253.221982      0.375799    1228.29
  10.226380  -0.206375      0.375369  12600.191174      0.375369    1233.34
  10.226527  -0.212510      0.374940  12955.671694      0.374940    1238.41
  10.226673  -0.218646      0.374513  13319.976404      0.374513    1243.50
  10.226818  -0.224784      0.374089  13693.437874      0.374089    1248.63
  10.226961  -0.230923      0.373669  14076.409394      0.373669    1253.78
  10.227104  -0.237063      0.373254  14469.421309      0.373254    1258.96
  10.227245  -0.243204      0.372845  14874.221968      0.372845    1264.17
  10.227384  -0.249346      0.372442  15289.764063      0.372442    1269.41
  10.227523  -0.255488      0.372046  15716.398141      0.372047    1274.69
  10.227660  -0.261630      0.371659  16154.474193      0.371659    1280.00
  10.227797  -0.267772      0.371280  16604.413280      0.371280    1285.34
  10.227932  -0.273914      0.370911  17066.657972      0.370911    1290.72
  10.228066  -0.280055      0.370552  17541.672643      0.370552    1296.13
  10.228198  -0.286195      0.370204  18029.944252      0.370204    1301.58
  10.228330  -0.292333      0.369867  18531.983119      0.369868    1307.07
  10.228461  -0.298470      0.369542  19048.323695      0.369543    1312.59
  10.228590  -0.304605      0.369230  19579.525297      0.369230    1318.15
  10.228718  -0.310738      0.368930  20126.172824      0.368930    1323.76
  10.228845  -0.316868      0.368643  20688.877430      0.368644    1329.39
  10.228971  -0.322996      0.368370  21280.467393      0.368370    1335.07
  10.229096  -0.329120      0.368110  21897.658649      0.368110    1340.79
  10.229220  -0.335241      0.367864  22532.845936      0.367864    1346.55
  10.229343  -0.341359      0.367632  23185.987653      0.367632    1352.35
  10.229465  -0.347473      0.367413  23856.998560      0.367413    1358.18
  10.229586  -0.353583      0.367208  24545.747724      0.367208    1364.06
  10.229705  -0.359688      0.367017  25252.056472      0.367017    1369.98
  10.229824  -0.365789      0.366839  25975.696288      0.366839    1375.94
  10.229941  -0.371885      0.366674  26716.386643      0.366674    1381.93
  10.230058  -0.377976      0.366522  27473.792728      0.366522    1387.97
  10.230174  -0.384062      0.366382  28247.523008      0.366382    1394.04
  10.230288  -0.390143      0.366254  29037.126591      0.366255    1400.16
  10.230402  -0.396218      0.366138  29842.090303      0.366139    1406.31
  10.230514  -0.402287      0.366033  30661.835434      0.366034    1412.49
  10.230626  -0.408350      0.365939  31456.486001      0.365939    1418.72
  10.230736  -0.414407      0.365854  32263.531535      0.365855    1424.98
  10.230846  -0.420458      0.365779  33083.965895      0.365779    1431.27
  10.230955  -0.426503      0.365712  33918.394034      0.365713    1437.60
  10.231062  -0.432541      0.365653  34767.465095      0.365654    1443.96
  10.231169  -0.438573      0.365601  35631.874915      0.365602    1450.36
  10.231275  -0.444598      0.365556  36512.368662      0.365556    1456.78
  10.231380  -0.450617      0.365516  37409.743597      0.365516    1463.24
  10.231484  -0.456629      0.365481  38324.851940      0.365481    1469.72
  10.231587  -0.462634      0.365449  39258.603817      0.365450    1476.24
  10.231689  -0.468632      0.365421  40211.970264      0.365421    1482.78
  10.231790  -0.474624      0.365395  41185.986245      0.365395    1489.35
  10.231890  -0.480608      0.365370  42181.753665      0.365371    1495.94
  10.231989  -0.486586      0.365346  43218.233702      0.365346    1502.56
  10.232088  -0.492557      0.365322  44318.949008      0.365322    1509.20
  10.232185  -0.498522      0.365296  45445.235263      0.365296    1515.86
  10.232282  -0.504479      0.365268  46596.339126      0.365269    1522.54
  10.232378  -0.510430      0.365238  47771.267063      0.365238    1529.25
  10.232473  -0.516374      0.365203  48969.134984      0.365204    1535.97
  10.232567  -0.522312      0.365164  50188.966067      0.365165    1542.71
  10.232660  -0.528243      0.365120  51429.675943      0.365121    1549.46
  10.232752  -0.534168      0.365070  52690.067102      0.365070    1556.23
  10.232844  -0.540087      0.365013  53968.822295      0.365013    1563.01
  10.232935  -0.545999      0.364948  55264.496727      0.364948    1569.81
  10.233025  -0.551905      0.364875  56575.508816      0.364875    1576.62
  10.233114  -0.557805      0.364792  57900.129274      0.364793    1583.44
  10.233202  -0.563699      0.364700  59236.468214      0.364701    1590.27
  10.233289  -0.569588      0.364598  60517.466007      0.364598    1597.11
  10.233376  -0.575471      0.364484  61763.378218      0.364485    1603.96
  10.233461  -0.581349      0.364359  63014.295356      0.364360    1610.82
  10.233546  -0.587221      0.364222  64271.186279      0.364222    1617.68
  10.233631  -0.593088      0.364071  65535.157737      0.364072    1624.55
  10.233714  -0.598950      0.363908  66807.472353      0.363908    1631.42
  10.233797  -0.604807      0.363730  68089.567528      0.363731    1638.29
  10.233879  -0.610659      0.363538  69383.075093      0.363539    1645.17
  10.233960  -0.616507      0.363332  70689.841561      0.363332    1652.06
  10.234040  -0.622351      0.363110  72011.948735      0.363110    1658.94
  10.234120  -0.628190      0.362872  73351.734462      0.362873    1665.83
  10.234198  -0.634026      0.362619  74711.813206      0.362620    1672.71
  10.234277  -0.639857      0.362349  76095.096179      0.362350    1679.60
  10.234354  -0.645685      0.362063  77504.810626      0.362064    1686.48
  10.234431  -0.651510      0.361760  79055.564784      0.361761    1693.37
  10.234506  -0.657331      0.361440  80660.554628      0.361440    1700.25
  10.234582  -0.663149      0.361102  82302.782237      0.361103    1707.13
  10.234656  -0.668964      0.360747  83982.049572      0.360748    1714.01
  10.234730  -0.674776      0.360375  85698.066386      0.360375    1720.88
  10.234803  -0.680586      0.359984  87450.446511      0.359985    1727.76
  10.234875  -0.686394      0.359576  89238.704051      0.359576    1734.62
  10.234947  -0.692199      0.359149  91062.249321      0.359150    1741.49
  10.235018  -0.698002      0.358705  92920.384623      0.358705    1748.35
  10.235089  -0.703803      0.358242  94812.299704      0.358243    1755.21
  10.235158  -0.709603      0.357761  96737.066808      0.357762    1762.06
  10.235227  -0.715401      0.357262  98693.637654      0.357263    1768.91
  10.235249  -0.717198      0.357104  99306.362399      0.357105    1771.03
