 # log(r) log(d) del_ad  del_el  del  del_rad  log(v)
   8.349458   2.054242      0.396913      1.720626      0.405590     219.65
   8.352791   2.054247      0.396913      1.720586      0.405463     220.22
   8.356125   2.054251      0.396913      1.720552      0.405399     220.79
   8.359458   2.054255      0.396913      1.720521      0.405334     221.36
   8.362791   2.054260      0.396913      1.720495      0.405270     221.93
   8.366124   2.054264      0.396913      1.720473      0.405206     222.50
   8.369457   2.054269      0.396913      1.720454      0.405143     223.07
   8.372791   2.054273      0.396913      1.720440      0.405081     223.65
   8.376124   2.054278      0.396913      1.720430      0.405018     224.23
   8.379457   2.054282      0.396913      1.720424      0.404957     224.81
   8.382790   2.054287      0.396913      1.720421      0.404895     225.39
   8.386123   2.054291      0.396913      1.720422      0.404835     225.97
   8.389456   2.054296      0.396913      1.720426      0.404774     226.55
   8.392789   2.054300      0.396913      1.720434      0.404714     227.14
   8.396122   2.054305      0.396913      1.720446      0.404655     227.72
   8.399455   2.054309      0.396913      1.720460      0.404596     228.31
   8.402787   2.054314      0.396914      1.720478      0.404537     228.90
   8.406120   2.054318      0.396914      1.720500      0.404479     229.50
   8.409453   2.054323      0.396914      1.720524      0.404422     230.09
   8.412786   2.054327      0.396914      1.720552      0.404364     230.69
   8.416119   2.054332      0.396914      1.720582      0.404308     231.28
   8.419452   2.054336      0.396914      1.720616      0.404251     231.88
   8.422784   2.054341      0.396914      1.720652      0.404195     232.48
   8.426117   2.054345      0.396914      1.720691      0.404140     233.09
   8.429450   2.054350      0.396914      1.720733      0.404085     233.69
   8.432782   2.054354      0.396914      1.720778      0.404030     234.30
   8.436115   2.054359      0.396914      1.720825      0.403976     234.90
   8.439448   2.054363      0.396914      1.720875      0.403922     235.51
   8.442780   2.054368      0.396914      1.720928      0.403868     236.12
   8.446113   2.054372      0.396914      1.720983      0.403815     236.74
   8.449446   2.054377      0.396914      1.721040      0.403762     237.35
   8.452778   2.054381      0.396914      1.721100      0.403710     237.97
   8.456111   2.054386      0.396914      1.721162      0.403658     238.59
   8.459443   2.054390      0.396914      1.721227      0.403607     239.21
   8.462776   2.054395      0.396914      1.721293      0.403556     239.83
   8.466108   2.054399      0.396915      1.721362      0.403505     240.45
   8.469441   2.054404      0.396915      1.721433      0.403455     241.07
   8.472773   2.054408      0.396915      1.721506      0.403405     241.70
   8.476106   2.054413      0.396915      1.721581      0.403355     242.33
   8.479438   2.054417      0.396915      1.721658      0.403306     242.96
   8.482771   2.054421      0.396915      1.721737      0.403257     243.59
   8.486103   2.054426      0.396915      1.721818      0.403208     244.22
   8.489435   2.054430      0.396915      1.721900      0.403160     244.86
   8.492768   2.054435      0.396915      1.721985      0.403113     245.50
   8.496100   2.054439      0.396915      1.722071      0.403065     246.14
   8.499433   2.054443      0.396915      1.722159      0.403018     246.78
   8.502765   2.054447      0.396915      1.722249      0.402971     247.42
   8.506097   2.054452      0.396915      1.722340      0.402925     248.06
   8.509430   2.054456      0.396915      1.722433      0.402879     248.71
   8.512762   2.054460      0.396915      1.722527      0.402833     249.36
   8.516094   2.054465      0.396915      1.722623      0.402788     250.00
   8.519427   2.054469      0.396916      1.722720      0.402743     250.66
   8.522759   2.054473      0.396916      1.722819      0.402698     251.31
   8.526091   2.054477      0.396916      1.722919      0.402654     251.96
   8.529424   2.054481      0.396916      1.723020      0.402610     252.62
   8.532756   2.054485      0.396916      1.723122      0.402566     253.28
   8.536088   2.054489      0.396916      1.723226      0.402523     253.94
   8.539420   2.054493      0.396916      1.723331      0.402480     254.60
   8.542753   2.054497      0.396916      1.723438      0.402437     255.26
   8.546085   2.054501      0.396916      1.723545      0.402395     255.93
   8.549417   2.054505      0.396916      1.723653      0.402353     256.59
   8.552749   2.054509      0.396916      1.723763      0.402311     257.26
   8.556082   2.054513      0.396916      1.723873      0.402269     257.93
   8.559414   2.054517      0.396916      1.723984      0.402228     258.61
   8.562746   2.054521      0.396916      1.724097      0.402188     259.28
   8.566078   2.054525      0.396916      1.724210      0.402147     259.95
   8.569411   2.054528      0.396917      1.724324      0.402107     260.63
   8.572743   2.054532      0.396917      1.724439      0.402067     261.31
   8.576075   2.054536      0.396917      1.724554      0.402027     261.99
   8.579407   2.054539      0.396917      1.724671      0.401988     262.68
   8.582740   2.054543      0.396917      1.724788      0.401949     263.36
   8.586072   2.054546      0.396917      1.724905      0.401910     264.05
   8.589404   2.054550      0.396917      1.725023      0.401871     264.74
   8.592736   2.054553      0.396917      1.725142      0.401833     265.43
   8.596068   2.054556      0.396917      1.725261      0.401795     266.12
   8.599401   2.054560      0.396917      1.725381      0.401758     266.81
   8.602733   2.054563      0.396917      1.725501      0.401720     267.51
   8.606065   2.054566      0.396917      1.725622      0.401683     268.20
   8.609397   2.054569      0.396917      1.725743      0.401646     268.90
   8.612729   2.054572      0.396917      1.725864      0.401610     269.60
   8.616062   2.054575      0.396918      1.725986      0.401574     270.31
   8.619394   2.054578      0.396918      1.726108      0.401538     271.01
   8.622726   2.054581      0.396918      1.726230      0.401502     271.72
   8.626058   2.054584      0.396918      1.726352      0.401466     272.43
   8.629391   2.054586      0.396918      1.726474      0.401431     273.13
   8.632723   2.054589      0.396918      1.726596      0.401396     273.85
   8.636055   2.054592      0.396918      1.726719      0.401361     274.56
   8.639387   2.054594      0.396918      1.726841      0.401327     275.28
   8.642720   2.054597      0.396918      1.726963      0.401293     275.99
   8.646052   2.054599      0.396918      1.727086      0.401259     276.71
   8.649384   2.054601      0.396918      1.727208      0.401225     277.43
   8.652716   2.054603      0.396918      1.727329      0.401192     278.16
   8.656049   2.054605      0.396918      1.727451      0.401158     278.88
   8.659381   2.054607      0.396919      1.727572      0.401125     279.61
   8.662713   2.054609      0.396919      1.727693      0.401093     280.33
   8.666046   2.054611      0.396919      1.727814      0.401060     281.06
   8.669378   2.054612      0.396919      1.727934      0.401028     281.80
   8.672710   2.054614      0.396919      1.728054      0.400996     282.53
   8.676043   2.054615      0.396919      1.728173      0.400964     283.26
   8.679375   2.054617      0.396919      1.728292      0.400933     284.00
   8.682707   2.054618      0.396919      1.728410      0.400901     284.74
   8.686040   2.054619      0.396919      1.728527      0.400870     285.48
   8.689372   2.054620      0.396919      1.728643      0.400839     286.22
   8.692705   2.054621      0.396919      1.728759      0.400809     286.97
   8.696037   2.054622      0.396919      1.728874      0.400778     287.71
   8.699370   2.054622      0.396920      1.728988      0.400748     288.46
   8.702702   2.054623      0.396920      1.729102      0.400718     289.21
   8.706034   2.054623      0.396920      1.729214      0.400688     289.96
   8.709367   2.054624      0.396920      1.729325      0.400658     290.72
   8.712699   2.054624      0.396920      1.729435      0.400629     291.47
   8.716032   2.054624      0.396920      1.729544      0.400600     292.23
   8.719365   2.054623      0.396920      1.729652      0.400571     292.99
   8.722697   2.054623      0.396920      1.729758      0.400542     293.75
   8.726030   2.054623      0.396920      1.729863      0.400514     294.51
   8.729362   2.054622      0.396920      1.729967      0.400485     295.28
   8.732695   2.054621      0.396920      1.730069      0.400457     296.04
   8.736028   2.054620      0.396921      1.730170      0.400429     296.81
   8.739360   2.054619      0.396921      1.730269      0.400402     297.58
   8.742693   2.054618      0.396921      1.730367      0.400374     298.35
   8.746026   2.054616      0.396921      1.730463      0.400347     299.12
   8.749358   2.054615      0.396921      1.730557      0.400320     299.90
   8.752691   2.054613      0.396921      1.730649      0.400293     300.68
   8.756024   2.054611      0.396921      1.730740      0.400266     301.46
   8.759357   2.054609      0.396921      1.730828      0.400239     302.24
   8.762690   2.054606      0.396921      1.730915      0.400213     303.02
   8.766023   2.054604      0.396921      1.730999      0.400187     303.80
   8.769356   2.054601      0.396921      1.731081      0.400161     304.59
   8.772689   2.054598      0.396922      1.731161      0.400135     305.38
   8.776021   2.054595      0.396922      1.731239      0.400109     306.16
   8.779355   2.054591      0.396922      1.731314      0.400084     306.96
   8.782688   2.054587      0.396922      1.731386      0.400058     307.75
   8.786021   2.054584      0.396922      1.731457      0.400033     308.54
   8.789354   2.054579      0.396922      1.731524      0.400008     309.34
   8.792687   2.054575      0.396922      1.731589      0.399983     310.14
   8.796020   2.054570      0.396922      1.731651      0.399959     310.94
   8.799353   2.054566      0.396922      1.731710      0.399934     311.74
   8.802687   2.054561      0.396922      1.731766      0.399910     312.54
   8.806020   2.054555      0.396923      1.731819      0.399886     313.35
   8.809353   2.054550      0.396923      1.731869      0.399862     314.15
   8.812687   2.054544      0.396923      1.731916      0.399838     314.96
   8.816020   2.054537      0.396923      1.731959      0.399815     315.77
   8.819354   2.054531      0.396923      1.731999      0.399791     316.58
   8.822687   2.054524      0.396923      1.732036      0.399768     317.40
   8.826021   2.054517      0.396923      1.732068      0.399745     318.21
   8.829354   2.054510      0.396923      1.732098      0.399722     319.03
   8.832688   2.054502      0.396923      1.732123      0.399699     319.85
   8.836022   2.054494      0.396923      1.732144      0.399676     320.67
   8.839356   2.054486      0.396924      1.732162      0.399654     321.49
   8.842690   2.054477      0.396924      1.732175      0.399631     322.31
   8.846023   2.054468      0.396924      1.732184      0.399609     323.14
   8.849357   2.054459      0.396924      1.732189      0.399587     323.96
   8.852691   2.054450      0.396924      1.732190      0.399565     324.79
   8.856025   2.054440      0.396924      1.732186      0.399543     325.62
   8.859360   2.054429      0.396924      1.732177      0.399522     326.45
   8.862694   2.054419      0.396924      1.732164      0.399500     327.28
   8.866028   2.054407      0.396924      1.732145      0.399479     328.12
   8.869362   2.054396      0.396925      1.732122      0.399458     328.95
   8.872697   2.054384      0.396925      1.732093      0.399437     329.79
   8.876031   2.054372      0.396925      1.732060      0.399416     330.63
   8.879366   2.054359      0.396925      1.732021      0.399395     331.47
   8.882700   2.054346      0.396925      1.731976      0.399374     332.31
   8.886035   2.054333      0.396925      1.731926      0.399354     333.16
   8.889370   2.054319      0.396925      1.731870      0.399334     334.00
   8.892705   2.054304      0.396925      1.731808      0.399313     334.85
   8.896039   2.054289      0.396925      1.731741      0.399293     335.69
   8.899374   2.054274      0.396926      1.731667      0.399273     336.54
   8.902709   2.054258      0.396926      1.731587      0.399253     337.39
   8.906045   2.054242      0.396926      1.731500      0.399234     338.25
   8.909380   2.054225      0.396926      1.731407      0.399214     339.10
   8.912715   2.054208      0.396926      1.731307      0.399195     339.95
   8.916051   2.054190      0.396926      1.731200      0.399175     340.81
   8.919386   2.054172      0.396926      1.731087      0.399156     341.67
   8.922722   2.054153      0.396926      1.730966      0.399137     342.52
   8.926057   2.054134      0.396926      1.730837      0.399118     343.38
   8.929393   2.054114      0.396927      1.730702      0.399099     344.25
   8.932729   2.054094      0.396927      1.730558      0.399080     345.11
   8.936065   2.054073      0.396927      1.730407      0.399062     345.97
   8.939401   2.054051      0.396927      1.730248      0.399043     346.84
   8.942737   2.054029      0.396927      1.730081      0.399025     347.70
   8.946073   2.054006      0.396927      1.729905      0.399006     348.57
   8.949410   2.053983      0.396927      1.729721      0.398988     349.44
   8.952746   2.053959      0.396927      1.729529      0.398970     350.31
   8.956083   2.053934      0.396927      1.729327      0.398952     351.18
   8.959420   2.053909      0.396928      1.729116      0.398934     352.05
   8.962756   2.053883      0.396928      1.728897      0.398917     352.92
   8.966093   2.053856      0.396928      1.728667      0.398899     353.79
   8.969430   2.053829      0.396928      1.728429      0.398882     354.67
   8.972768   2.053801      0.396928      1.728180      0.398864     355.54
   8.976105   2.053772      0.396928      1.727922      0.398847     356.42
   8.979442   2.053742      0.396928      1.727653      0.398830     357.30
   8.982780   2.053712      0.396928      1.727374      0.398812     358.17
   8.986118   2.053681      0.396928      1.727084      0.398795     359.05
   8.989456   2.053649      0.396929      1.726784      0.398779     359.93
   8.992794   2.053616      0.396929      1.726473      0.398762     360.81
   8.996132   2.053583      0.396929      1.726150      0.398745     361.69
   8.999470   2.053549      0.396929      1.725816      0.398728     362.58
   9.002809   2.053514      0.396929      1.725470      0.398712     363.46
   9.006147   2.053478      0.396929      1.725112      0.398696     364.34
   9.009486   2.053441      0.396929      1.724743      0.398679     365.22
   9.012825   2.053403      0.396929      1.724361      0.398663     366.11
   9.016164   2.053364      0.396929      1.723966      0.398647     366.99
   9.019503   2.053325      0.396930      1.723559      0.398631     367.88
   9.022843   2.053284      0.396930      1.723138      0.398615     368.76
   9.026182   2.053243      0.396930      1.722704      0.398599     369.65
   9.029522   2.053200      0.396930      1.722257      0.398583     370.54
   9.032862   2.053157      0.396930      1.721796      0.398567     371.42
   9.036202   2.053112      0.396930      1.721321      0.398552     372.31
   9.039542   2.053067      0.396930      1.720831      0.398536     373.20
   9.042883   2.053020      0.396930      1.720327      0.398521     374.09
   9.046224   2.052973      0.396930      1.719808      0.398505     374.97
   9.049565   2.052924      0.396930      1.719274      0.398490     375.86
   9.052906   2.052874      0.396931      1.718724      0.398475     376.75
   9.056247   2.052823      0.396931      1.718159      0.398460     377.64
   9.059588   2.052771      0.396931      1.717578      0.398445     378.52
   9.062930   2.052718      0.396931      1.716981      0.398430     379.41
   9.066272   2.052663      0.396931      1.716367      0.398415     380.30
   9.069614   2.052607      0.396931      1.715737      0.398400     381.19
   9.072957   2.052550      0.396931      1.715089      0.398385     382.07
   9.076299   2.052492      0.396931      1.714424      0.398371     382.96
   9.079642   2.052432      0.396931      1.713741      0.398356     383.85
   9.082985   2.052371      0.396931      1.713040      0.398342     384.73
   9.086329   2.052309      0.396932      1.712321      0.398327     385.62
   9.089672   2.052246      0.396932      1.711583      0.398313     386.50
   9.093016   2.052180      0.396932      1.710827      0.398299     387.39
   9.096360   2.052114      0.396932      1.710051      0.398284     388.27
   9.099705   2.052046      0.396932      1.709255      0.398270     389.15
   9.103049   2.051977      0.396932      1.708440      0.398256     390.04
   9.106394   2.051906      0.396932      1.707604      0.398242     390.92
   9.109740   2.051833      0.396932      1.706748      0.398228     391.80
   9.113085   2.051759      0.396932      1.705871      0.398214     392.68
   9.116431   2.051684      0.396932      1.704972      0.398200     393.56
   9.119777   2.051606      0.396932      1.704052      0.398187     394.43
   9.123123   2.051527      0.396933      1.703110      0.398173     395.31
   9.126470   2.051447      0.396933      1.702146      0.398159     396.18
   9.129817   2.051364      0.396933      1.701159      0.398146     397.06
   9.133164   2.051280      0.396933      1.700148      0.398132     397.93
   9.136512   2.051195      0.396933      1.699115      0.398119     398.80
   9.139860   2.051107      0.396933      1.698058      0.398105     399.67
   9.143208   2.051017      0.396933      1.696976      0.398092     400.54
   9.146557   2.050926      0.396933      1.695870      0.398079     401.40
   9.149906   2.050833      0.396933      1.694740      0.398065     402.27
   9.153256   2.050737      0.396933      1.693583      0.398052     403.13
   9.156605   2.050640      0.396933      1.692402      0.398039     403.99
   9.159955   2.050541      0.396933      1.691194      0.398026     404.85
   9.163306   2.050439      0.396933      1.689960      0.398013     405.70
   9.166657   2.050336      0.396933      1.688699      0.398000     406.55
   9.170008   2.050230      0.396933      1.687411      0.397987     407.41
   9.173360   2.050122      0.396933      1.686095      0.397974     408.25
   9.176712   2.050012      0.396934      1.684751      0.397961     409.10
   9.180065   2.049900      0.396934      1.683379      0.397949     409.94
   9.183418   2.049785      0.396934      1.681977      0.397936     410.78
   9.186771   2.049668      0.396934      1.680547      0.397923     411.62
   9.190125   2.049548      0.396934      1.679087      0.397911     412.46
   9.193479   2.049427      0.396934      1.677597      0.397898     413.29
   9.196834   2.049302      0.396934      1.676076      0.397886     414.12
   9.200189   2.049175      0.396934      1.674525      0.397873     414.94
   9.203545   2.049046      0.396934      1.672942      0.397861     415.76
   9.206901   2.048914      0.396934      1.671328      0.397848     416.58
   9.210258   2.048779      0.396934      1.669681      0.397836     417.40
   9.213615   2.048641      0.396934      1.668002      0.397824     418.21
   9.216973   2.048501      0.396934      1.666290      0.397811     419.02
   9.220331   2.048357      0.396934      1.664544      0.397799     419.82
   9.223690   2.048211      0.396934      1.662765      0.397787     420.62
   9.227049   2.048062      0.396934      1.660951      0.397775     421.41
   9.230409   2.047910      0.396934      1.659103      0.397763     422.20
   9.233769   2.047755      0.396934      1.657220      0.397751     422.99
   9.237130   2.047597      0.396934      1.655301      0.397739     423.77
   9.240492   2.047435      0.396934      1.653346      0.397727     424.55
   9.243854   2.047271      0.396934      1.651354      0.397715     425.32
   9.247217   2.047103      0.396934      1.649326      0.397703     426.09
   9.250580   2.046931      0.396934      1.647261      0.397691     426.85
   9.253944   2.046757      0.396934      1.645158      0.397679     427.60
   9.257309   2.046578      0.396934      1.643016      0.397667     428.36
   9.260674   2.046397      0.396934      1.640837      0.397655     429.10
   9.264040   2.046211      0.396933      1.638618      0.397644     429.84
   9.267407   2.046022      0.396933      1.636360      0.397632     430.58
   9.270775   2.045829      0.396933      1.634063      0.397620     431.30
   9.274143   2.045633      0.396933      1.631725      0.397609     432.03
   9.277512   2.045432      0.396933      1.629347      0.397597     432.74
   9.280881   2.045227      0.396933      1.626928      0.397585     433.45
   9.284251   2.045019      0.396933      1.624468      0.397574     434.15
   9.287623   2.044806      0.396933      1.621965      0.397562     434.85
   9.290994   2.044589      0.396933      1.619421      0.397551     435.54
   9.294367   2.044368      0.396933      1.616835      0.397539     436.22
   9.297741   2.044142      0.396933      1.614205      0.397528     436.89
   9.301115   2.043912      0.396932      1.611532      0.397516     437.56
   9.304490   2.043678      0.396932      1.608816      0.397505     438.22
   9.307866   2.043439      0.396932      1.606056      0.397494     438.87
   9.311243   2.043195      0.396932      1.603252      0.397482     439.52
   9.314621   2.042946      0.396932      1.600403      0.397471     440.15
   9.317999   2.042693      0.396932      1.597509      0.397460     440.78
   9.321379   2.042434      0.396931      1.594570      0.397448     441.40
   9.324759   2.042171      0.396931      1.591586      0.397437     442.01
   9.328141   2.041902      0.396931      1.588555      0.397426     442.61
   9.331523   2.041628      0.396931      1.585479      0.397415     443.21
   9.334907   2.041349      0.396931      1.582356      0.397403     443.79
   9.338291   2.041064      0.396930      1.579187      0.397392     444.37
   9.341677   2.040773      0.396930      1.575971      0.397381     444.93
   9.345063   2.040477      0.396930      1.572708      0.397370     445.49
   9.348451   2.040176      0.396930      1.569398      0.397359     446.03
   9.351840   2.039868      0.396929      1.566040      0.397348     446.57
   9.355230   2.039554      0.396929      1.562634      0.397337     447.09
   9.358621   2.039235      0.396929      1.559181      0.397326     447.61
   9.362013   2.038909      0.396929      1.555680      0.397315     448.11
   9.365406   2.038576      0.396928      1.552130      0.397304     448.60
   9.368801   2.038237      0.396928      1.548533      0.397293     449.09
   9.372196   2.037892      0.396928      1.544887      0.397282     449.56
   9.375593   2.037540      0.396927      1.541193      0.397271     450.02
   9.378992   2.037181      0.396927      1.537450      0.397260     450.47
   9.382391   2.036815      0.396927      1.533660      0.397249     450.90
   9.385792   2.036442      0.396926      1.529820      0.397238     451.33
   9.389194   2.036062      0.396926      1.525932      0.397227     451.74
   9.392598   2.035674      0.396925      1.521996      0.397216     452.14
   9.396003   2.035279      0.396925      1.518012      0.397206     452.53
   9.399409   2.034876      0.396924      1.513979      0.397195     452.90
   9.402817   2.034466      0.396924      1.509899      0.397184     453.27
   9.406226   2.034047      0.396924      1.505770      0.397173     453.62
   9.409637   2.033620      0.396923      1.501594      0.397162     453.95
   9.413050   2.033185      0.396923      1.497370      0.397152     454.27
   9.416464   2.032742      0.396922      1.493099      0.397141     454.58
   9.419879   2.032290      0.396921      1.488781      0.397130     454.88
   9.423297   2.031829      0.396921      1.484416      0.397119     455.16
   9.426715   2.031360      0.396920      1.480005      0.397109     455.43
   9.430136   2.030881      0.396920      1.475547      0.397098     455.68
   9.433558   2.030393      0.396919      1.471045      0.397087     455.92
   9.436982   2.029896      0.396918      1.466497      0.397077     456.14
   9.440408   2.029389      0.396918      1.461904      0.397066     456.35
   9.443836   2.028872      0.396917      1.457267      0.397056     456.54
   9.447265   2.028345      0.396916      1.452587      0.397045     456.72
   9.450697   2.027808      0.396916      1.447864      0.397034     456.88
   9.454130   2.027261      0.396915      1.443098      0.397024     457.03
   9.457565   2.026703      0.396914      1.438291      0.397013     457.16
   9.461003   2.026134      0.396913      1.433443      0.397003     457.28
   9.464442   2.025555      0.396913      1.428555      0.396992     457.38
   9.467884   2.024964      0.396912      1.423627      0.396982     457.46
   9.471327   2.024361      0.396911      1.418661      0.396971     457.53
   9.474773   2.023748      0.396910      1.413657      0.396961     457.58
   9.478221   2.023122      0.396909      1.408623      0.396951     457.61
   9.481671   2.022484      0.396908      1.403555      0.396940     457.63
   9.485124   2.021833      0.396907      1.398451      0.396930     457.63
   9.488579   2.021171      0.396906      1.393315      0.396919     457.62
   9.492036   2.020495      0.396905      1.388146      0.396909     457.59
   9.495496   2.019806      0.396904      1.382946      0.396899     457.54
   9.498958   2.019104      0.396903      1.377716      0.396888     457.47
   9.502423   2.018388      0.396902      1.372457      0.396878     457.39
   9.505890   2.017659      0.396901      1.367171      0.396868     457.29
   9.509360   2.016915      0.396899      1.361860      0.396858     457.17
   9.512833   2.016157      0.396898      1.356524      0.396847     457.03
   9.516309   2.015385      0.396897      1.351165      0.396837     456.88
   9.519787   2.014597      0.396896      1.345784      0.396827     456.71
   9.523268   2.013794      0.396894      1.340384      0.396817     456.52
   9.526752   2.012976      0.396893      1.334966      0.396807     456.32
   9.530239   2.012142      0.396892      1.329531      0.396797     456.10
   9.533729   2.011291      0.396890      1.324082      0.396787     455.86
   9.537222   2.010424      0.396889      1.318620      0.396777     455.60
   9.540718   2.009540      0.396887      1.313148      0.396767     455.33
   9.544218   2.008639      0.396886      1.307666      0.396757     455.04
   9.547720   2.007721      0.396884      1.302178      0.396747     454.73
   9.551227   2.006785      0.396882      1.296685      0.396737     454.40
   9.554736   2.005830      0.396881      1.291189      0.396727     454.06
   9.558249   2.004857      0.396879      1.285692      0.396717     453.70
   9.561766   2.003866      0.396877      1.280198      0.396707     453.32
   9.565286   2.002855      0.396875      1.274707      0.396698     452.93
   9.568809   2.001824      0.396873      1.269223      0.396688     452.52
   9.572337   2.000773      0.396871      1.263747      0.396678     452.09
   9.575868   1.999702      0.396870      1.258283      0.396669     451.65
   9.579404   1.998609      0.396867      1.252832      0.396659     451.19
   9.582943   1.997496      0.396865      1.247398      0.396650     450.72
   9.586487   1.996361      0.396863      1.241982      0.396640     450.23
   9.590034   1.995203      0.396861      1.236588      0.396631     449.72
   9.593586   1.994023      0.396859      1.231219      0.396621     449.20
   9.597142   1.992821      0.396857      1.225876      0.396612     448.67
   9.600703   1.991594      0.396854      1.220564      0.396603     448.12
   9.604268   1.990344      0.396852      1.215284      0.396593     447.56
   9.607837   1.989069      0.396849      1.210041      0.396584     446.98
   9.611412   1.987769      0.396847      1.204836      0.396575     446.39
   9.614991   1.986443      0.396844      1.199673      0.396566     445.78
   9.618575   1.985092      0.396841      1.194555      0.396557     445.17
   9.622164   1.983714      0.396839      1.189485      0.396548     444.54
   9.625758   1.982309      0.396836      1.184467      0.396539     443.89
   9.629358   1.980877      0.396833      1.179503      0.396530     443.24
   9.632962   1.979416      0.396830      1.174597      0.396521     442.58
   9.636573   1.977926      0.396827      1.169753      0.396512     441.90
   9.640188   1.976407      0.396824      1.164973      0.396504     441.22
   9.643810   1.974859      0.396820      1.160262      0.396495     440.52
   9.647437   1.973279      0.396817      1.155622      0.396487     439.82
   9.651070   1.971668      0.396814      1.151058      0.396478     439.11
   9.654709   1.970026      0.396810      1.146574      0.396470     438.38
   9.658354   1.968351      0.396807      1.142172      0.396461     437.66
   9.662005   1.966642      0.396803      1.137856      0.396453     436.92
   9.665663   1.964900      0.396799      1.133632      0.396445     436.18
   9.669327   1.963123      0.396796      1.129501      0.396437     435.43
   9.672998   1.961311      0.396792      1.125469      0.396429     434.68
   9.676676   1.959462      0.396788      1.121540      0.396421     433.92
   9.680361   1.957577      0.396784      1.117717      0.396413     433.16
   9.684053   1.955654      0.396779      1.114006      0.396405     432.40
   9.687752   1.953692      0.396775      1.110409      0.396398     431.63
   9.691459   1.951691      0.396771      1.106932      0.396390     430.86
   9.695173   1.949650      0.396766      1.103579      0.396383     430.10
   9.698895   1.947567      0.396761      1.100355      0.396375     429.33
   9.702625   1.945443      0.396757      1.097264      0.396368     428.56
   9.706363   1.943276      0.396752      1.094311      0.396361     427.79
   9.710110   1.941064      0.396747      1.091502      0.396353     427.02
   9.713865   1.938808      0.396742      1.088841      0.396346     426.26
   9.717628   1.936506      0.396736      1.086334      0.396339     425.50
   9.721401   1.934157      0.396731      1.083986      0.396333     424.75
   9.725182   1.931761      0.396726      1.081803      0.396326     423.99
   9.728973   1.929314      0.396720      1.079790      0.396319     423.25
   9.732773   1.926818      0.396714      1.077954      0.396313     422.51
   9.736583   1.924270      0.396708      1.076300      0.396306     421.78
   9.740403   1.921670      0.396702      1.074836      0.396300     421.06
   9.744233   1.919016      0.396696      1.073568      0.396293     420.35
   9.748073   1.916307      0.396689      1.072503      0.396287     419.64
   9.751924   1.913541      0.396683      1.071649      0.396281     418.95
   9.755786   1.910717      0.396676      1.071013      0.396275     418.27
   9.759659   1.907834      0.396669      1.070603      0.396269     417.60
   9.763544   1.904890      0.396662      1.070428      0.396263     416.95
   9.767440   1.901884      0.396655      1.070497      0.396257     416.31
   9.771348   1.898814      0.396648      1.070820      0.396252     415.69
   9.775268   1.895679      0.396640      1.071406      0.396246     415.08
   9.779201   1.892476      0.396632      1.072265      0.396240     414.49
   9.783147   1.889205      0.396624      1.073410      0.396235     413.92
   9.787106   1.885863      0.396616      1.074852      0.396230     413.36
   9.791078   1.882448      0.396608      1.076604      0.396224     412.83
   9.795065   1.878958      0.396599      1.078679      0.396219     412.32
   9.799065   1.875392      0.396590      1.081092      0.396213     411.82
   9.803081   1.871747      0.396581      1.083888      0.396208     411.36
   9.807111   1.868021      0.396572      1.087145      0.396203     410.92
   9.811156   1.864212      0.396562      1.090793      0.396198     410.51
   9.815218   1.860317      0.396553      1.094851      0.396193     410.13
   9.819295   1.856333      0.396543      1.099339      0.396187     409.77
   9.823389   1.852259      0.396532      1.104279      0.396182     409.45
   9.827501   1.848091      0.396522      1.109694      0.396177     409.15
   9.831630   1.843826      0.396511      1.115608      0.396172     408.88
   9.835777   1.839462      0.396500      1.122049      0.396166     408.64
   9.839943   1.834994      0.396489      1.129046      0.396161     408.44
   9.844127   1.830421      0.396477      1.136630      0.396155     408.26
   9.848332   1.825738      0.396465      1.144836      0.396150     408.13
   9.852557   1.820941      0.396452      1.153699      0.396144     408.03
   9.856803   1.816027      0.396440      1.163261      0.396138     407.96
   9.861071   1.810992      0.396427      1.173565      0.396132     407.94
   9.865360   1.805831      0.396413      1.184658      0.396126     407.95
   9.869673   1.800539      0.396400      1.196592      0.396119     408.01
   9.874010   1.795112      0.396385      1.209423      0.396113     408.10
   9.878371   1.789545      0.396371      1.223213      0.396106     408.24
   9.882757   1.783832      0.396356      1.238030      0.396098     408.43
   9.887170   1.777967      0.396340      1.253947      0.396091     408.66
   9.891580   1.771985      0.396324      1.270926      0.396083     408.94
   9.895901   1.766005      0.396308      1.288667      0.396075     409.25
   9.900137   1.760024      0.396292      1.307179      0.396067     409.61
   9.904291   1.754044      0.396276      1.326474      0.396059     410.00
   9.908366   1.748063      0.396260      1.346563      0.396050     410.42
   9.912364   1.742083      0.396244      1.367460      0.396041     410.88
   9.916288   1.736104      0.396228      1.389178      0.396032     411.37
   9.920140   1.730124      0.396212      1.411731      0.396023     411.89
   9.923923   1.724145      0.396195      1.435136      0.396014     412.43
   9.927639   1.718166      0.396179      1.459285      0.396004     413.00
   9.931290   1.712188      0.396162      1.484222      0.395994     413.59
   9.934878   1.706209      0.396146      1.510054      0.395984     414.20
   9.938404   1.700231      0.396129      1.536801      0.395973     414.84
   9.941871   1.694253      0.396113      1.564484      0.395963     415.50
   9.945280   1.688276      0.396096      1.593124      0.395952     416.18
   9.948633   1.682298      0.396079      1.622745      0.395941     416.88
   9.951931   1.676321      0.396062      1.653372      0.395929     417.60
   9.955177   1.670344      0.396046      1.685029      0.395918     418.35
   9.958370   1.664367      0.396029      1.717742      0.395906     419.10
   9.961514   1.658391      0.396012      1.751539      0.395894     419.88
   9.964608   1.652415      0.395994      1.786448      0.395881     420.67
   9.967655   1.646439      0.395977      1.822498      0.395869     421.48
   9.970656   1.640463      0.395960      1.859808      0.395856     422.31
   9.973611   1.634488      0.395943      1.898539      0.395843     423.16
   9.976522   1.628512      0.395925      1.938535      0.395830     424.02
   9.979390   1.622537      0.395908      1.979829      0.395816     424.89
   9.982216   1.616562      0.395890      2.022458      0.395802     425.78
   9.985001   1.610588      0.395873      2.066459      0.395788     426.68
   9.987746   1.604614      0.395855      2.111870      0.395774     427.59
   9.990452   1.598639      0.395837      2.158732      0.395760     428.52
   9.993120   1.592666      0.395819      2.207086      0.395745     429.45
   9.995750   1.586692      0.395801      2.256974      0.395730     430.40
   9.998344   1.580719      0.395783      2.308439      0.395715     431.36
  10.000903   1.574746      0.395765      2.361528      0.395700     432.33
  10.003427   1.568773      0.395747      2.416145      0.395685     433.30
  10.005916   1.562800      0.395729      2.472387      0.395669     434.26
  10.008373   1.556828      0.395710      2.530410      0.395653     435.24
  10.010797   1.550855      0.395692      2.590263      0.395637     436.23
  10.013188   1.544883      0.395673      2.651997      0.395621     437.24
  10.015549   1.538912      0.395655      2.715664      0.395605     438.25
  10.017879   1.532940      0.395636      2.781320      0.395588     439.27
  10.020179   1.526969      0.395617      2.849019      0.395571     440.30
  10.022450   1.520998      0.395598      2.918819      0.395555     441.35
  10.024692   1.515027      0.395579      2.990782      0.395537     442.40
  10.026906   1.509056      0.395560      3.064968      0.395520     443.46
  10.029092   1.503086      0.395541      3.141441      0.395503     444.53
  10.031252   1.497116      0.395522      3.220268      0.395485     445.61
  10.033384   1.491146      0.395503      3.301515      0.395468     446.70
  10.035491   1.485177      0.395483      3.385253      0.395450     447.80
  10.037572   1.479207      0.395464      3.471555      0.395432     448.90
  10.039628   1.473238      0.395444      3.560494      0.395414     450.01
  10.041660   1.467269      0.395425      3.652148      0.395395     451.14
  10.043667   1.461301      0.395405      3.746597      0.395377     452.27
  10.045651   1.455332      0.395385      3.843920      0.395358     453.41
  10.047612   1.449364      0.395365      3.944204      0.395339     454.55
  10.049549   1.443396      0.395345      4.047534      0.395320     455.71
  10.051465   1.437428      0.395325      4.154000      0.395301     456.87
  10.053358   1.431461      0.395305      4.263694      0.395282     458.04
  10.055229   1.425494      0.395285      4.376711      0.395263     459.22
  10.057080   1.419527      0.395264      4.493172      0.395244     460.40
  10.058909   1.413560      0.395244      4.613757      0.395224     461.60
  10.060718   1.407593      0.395223      4.737974      0.395204     462.80
  10.062506   1.401627      0.395202      4.865925      0.395184     464.01
  10.064275   1.395661      0.395182      4.997711      0.395164     465.23
  10.066025   1.389695      0.395161      5.133438      0.395144     466.46
  10.067755   1.383730      0.395140      5.273217      0.395124     467.69
  10.069466   1.377765      0.395119      5.417157      0.395104     468.94
  10.071158   1.371800      0.395098      5.565376      0.395084     470.18
  10.072832   1.365835      0.395077      5.717990      0.395063     471.44
  10.074489   1.359870      0.395056      5.875123      0.395042     472.71
  10.076127   1.353906      0.395034      6.036898      0.395022     473.98
  10.077748   1.347942      0.395013      6.203446      0.395001     475.26
  10.079352   1.341978      0.394991      6.374898      0.394980     476.55
  10.080939   1.336015      0.394970      6.551391      0.394959     477.84
  10.082509   1.330051      0.394948      6.733065      0.394937     479.15
  10.084063   1.324088      0.394926      6.920065      0.394916     480.46
  10.085601   1.318126      0.394904      7.112539      0.394895     481.78
  10.087123   1.312163      0.394882      7.310640      0.394873     483.11
  10.088629   1.306201      0.394860      7.514525      0.394851     484.44
  10.090120   1.300239      0.394838      7.724357      0.394830     485.79
  10.091595   1.294277      0.394816      7.940301      0.394808     487.14
  10.093055   1.288316      0.394794      8.162530      0.394786     488.50
  10.094501   1.282355      0.394772      8.391219      0.394764     489.87
  10.095932   1.276394      0.394749      8.626551      0.394742     491.25
  10.097348   1.270433      0.394727      8.868713      0.394720     492.63
  10.098751   1.264473      0.394704      9.118045      0.394697     494.03
  10.100139   1.258512      0.394681      9.374684      0.394675     495.43
  10.101514   1.252552      0.394659      9.638784      0.394652     496.85
  10.102875   1.246593      0.394636      9.910553      0.394630     498.27
  10.104222   1.240633      0.394613     10.190205      0.394607     499.70
  10.105556   1.234674      0.394590     10.477961      0.394584     501.14
  10.106878   1.228716      0.394567     10.774045      0.394562     502.58
  10.108186   1.222757      0.394544     11.078691      0.394539     504.04
  10.109481   1.216799      0.394521     11.392136      0.394516     505.50
  10.110764   1.210841      0.394497     11.714622      0.394493     506.98
  10.112035   1.204883      0.394474     12.046400      0.394469     508.46
  10.113293   1.198925      0.394451     12.387727      0.394446     509.96
  10.114539   1.192968      0.394427     12.738864      0.394423     511.46
  10.115773   1.187011      0.394403     13.100081      0.394400     512.97
  10.116996   1.181055      0.394380     13.471655      0.394376     514.49
  10.118206   1.175098      0.394356     13.853869      0.394353     516.02
  10.119406   1.169142      0.394332     14.247012      0.394329     517.56
  10.120594   1.163186      0.394309     14.651383      0.394305     519.11
  10.121770   1.157231      0.394285     15.067285      0.394282     520.67
  10.122936   1.151276      0.394261     15.495032      0.394258     522.24
  10.124090   1.145321      0.394237     15.934945      0.394234     523.82
  10.125234   1.139366      0.394213     16.387350      0.394210     525.41
  10.126367   1.133411      0.394189     16.852585      0.394186     527.01
  10.127489   1.127457      0.394165     17.330994      0.394162     528.61
  10.128601   1.121503      0.394140     17.822930      0.394138     530.23
  10.129703   1.115550      0.394116     18.330967      0.394114     531.86
  10.130795   1.109597      0.394092     18.857282      0.394089     533.50
  10.131876   1.103644      0.394067     19.398479      0.394065     535.15
  10.132947   1.097691      0.394043     19.954890      0.394041     536.81
  10.134009   1.091738      0.394019     20.526851      0.394016     538.48
  10.135060   1.085786      0.393994     21.114701      0.393992     540.16
  10.136103   1.079834      0.393970     21.718782      0.393968     541.85
  10.137135   1.073883      0.393945     22.339441      0.393943     543.55
  10.138158   1.067932      0.393920     22.977025      0.393919     545.26
  10.139172   1.061981      0.393896     23.631887      0.393894     546.98
  10.140177   1.056030      0.393871     24.304382      0.393869     548.71
  10.141172   1.050079      0.393846     24.994867      0.393845     550.46
  10.142158   1.044129      0.393822     25.703705      0.393820     552.21
  10.143136   1.038179      0.393797     26.431258      0.393795     553.97
  10.144104   1.032230      0.393772     27.177895      0.393771     555.75
  10.145064   1.026281      0.393747     27.943985      0.393746     557.53
  10.146016   1.020332      0.393722     28.729903      0.393721     559.33
  10.146958   1.014383      0.393698     29.536027      0.393696     561.13
  10.147892   1.008435      0.393673     30.362736      0.393671     562.95
  10.148818   1.002487      0.393648     31.210416      0.393647     564.78
  10.149736   0.996539      0.393623     32.079455      0.393622     566.62
  10.150645   0.990591      0.393598     32.970244      0.393597     568.47
  10.151546   0.984644      0.393573     33.883182      0.393572     570.33
  10.152439   0.978697      0.393548     34.818670      0.393547     572.20
  10.153325   0.972751      0.393523     35.777114      0.393522     574.08
  10.154202   0.966804      0.393498     36.758925      0.393497     575.98
  10.155071   0.960858      0.393473     37.731835      0.393472     577.88
  10.155933   0.954913      0.393448     38.727149      0.393448     579.80
  10.156787   0.948967      0.393424     39.746509      0.393423     581.73
  10.157634   0.943022      0.393399     40.790715      0.393398     583.67
  10.158473   0.937077      0.393374     41.860599      0.393373     585.62
  10.159305   0.931133      0.393349     42.957029      0.393348     587.58
  10.160129   0.925189      0.393324     44.080906      0.393323     589.55
  10.160946   0.919245      0.393299     45.233165      0.393299     591.54
  10.161756   0.913301      0.393274     46.414778      0.393274     593.54
  10.162558   0.907358      0.393250     47.626753      0.393249     595.55
  10.163354   0.901415      0.393225     48.870133      0.393224     597.57
  10.164143   0.895472      0.393200     50.145997      0.393200     599.60
  10.164924   0.889529      0.393176     51.455465      0.393175     601.65
  10.165699   0.883587      0.393151     52.799690      0.393150     603.71
  10.166467   0.877645      0.393127     54.179864      0.393126     605.78
  10.167229   0.871704      0.393102     55.597216      0.393101     607.86
  10.167983   0.865763      0.393078     57.053013      0.393077     609.96
  10.168731   0.859822      0.393053     58.548556      0.393053     612.07
  10.169473   0.853881      0.393029     60.085186      0.393028     614.19
  10.170208   0.847940      0.393005     61.664277      0.393004     616.32
  10.170936   0.842000      0.392980     63.287240      0.392980     618.47
  10.171659   0.836061      0.392956     64.955516      0.392956     620.62
  10.172375   0.830121      0.392932     66.670584      0.392932     622.79
  10.173084   0.824182      0.392908     68.433949      0.392908     624.98
  10.173788   0.818243      0.392884     70.247148      0.392884     627.17
  10.174485   0.811861      0.391804     72.102161      0.391803     629.03
  10.175177   0.805907      0.391787     74.011740      0.391786     631.27
  10.175863   0.799953      0.391773     75.974190      0.391773     633.51
  10.176543   0.793999      0.391763     77.991203      0.391763     635.77
  10.177218   0.788046      0.391756     80.064556      0.391756     638.05
  10.177886   0.782094      0.391753     82.196114      0.391753     640.34
  10.178548   0.776142      0.391752     84.387836      0.391752     642.64
  10.179205   0.770191      0.391754     86.641782      0.391754     644.96
  10.179856   0.764240      0.391757     88.960118      0.391757     647.29
  10.180502   0.758290      0.391762     91.345123      0.391761     649.64
  10.181142   0.752341      0.391767     93.799199      0.391766     652.00
  10.181776   0.746392      0.391771     96.324880      0.391771     654.37
  10.182405   0.740444      0.391776     98.924839      0.391776     656.76
  10.183028   0.734497      0.391779    101.637652      0.391779     659.15
  10.183647   0.728550      0.391782    104.442473      0.391782     661.57
  10.184259   0.722604      0.391783    107.330790      0.391782     663.99
  10.184867   0.716658      0.391782    110.303893      0.391782     666.43
  10.185469   0.710713      0.391779    113.362983      0.391779     668.88
  10.186066   0.704769      0.391775    116.509163      0.391775     671.34
  10.186658   0.698825      0.391769    119.743430      0.391769     673.81
  10.187244   0.692881      0.391762    123.066669      0.391762     676.30
  10.187826   0.686938      0.391754    126.479641      0.391754     678.80
  10.188402   0.680995      0.391745    129.982975      0.391745     681.32
  10.188974   0.675052      0.391735    133.577160      0.391735     683.84
  10.189541   0.669110      0.391726    137.262538      0.391726     686.38
  10.190102   0.663168      0.391718    141.038270      0.391718     688.94
  10.190659   0.657227      0.391711    144.837423      0.391711     691.51
  10.191211   0.651286      0.391705    148.726738      0.391705     694.09
  10.191759   0.645345      0.391701    152.708641      0.391701     696.69
  10.192301   0.639405      0.391699    156.785646      0.391699     699.31
  10.192839   0.633466      0.391699    160.960344      0.391699     701.94
  10.193373   0.627526      0.391701    165.235410      0.391701     704.59
  10.193901   0.621588      0.391704    169.613598      0.391704     707.25
  10.194425   0.615650      0.391708    174.097736      0.391708     709.92
  10.194945   0.609712      0.391713    178.690729      0.391713     712.61
  10.195460   0.603775      0.391717    183.395557      0.391717     715.32
  10.195970   0.597839      0.391721    188.215272      0.391720     718.04
  10.196477   0.591903      0.391723    193.153003      0.391723     720.77
  10.196978   0.585968      0.391725    198.199840      0.391724     723.52
  10.197476   0.580033      0.391724    203.333846      0.391724     726.28
  10.197969   0.574098      0.391722    208.595354      0.391722     729.05
  10.198458   0.568164      0.391718    213.989844      0.391718     731.84
  10.198943   0.562230      0.391713    219.523091      0.391712     734.64
  10.199423   0.556296      0.391705    225.201182      0.391705     737.46
  10.199899   0.550363      0.391696    231.030524      0.391695     740.29
  10.200371   0.544430      0.391684    237.017863      0.391684     743.13
  10.200839   0.538497      0.391672    243.170287      0.391672     745.99
  10.201303   0.532564      0.391658    249.495249      0.391658     748.86
  10.201763   0.526632      0.391643    256.000574      0.391643     751.75
  10.202219   0.520699      0.391628    262.694476      0.391628     754.65
  10.202671   0.514767      0.391612    269.585566      0.391612     757.57
  10.203120   0.508835      0.391596    276.751322      0.391596     760.50
  10.203564   0.502903      0.391580    284.208112      0.391580     763.45
  10.204004   0.496971      0.391565    291.889627      0.391565     766.41
  10.204441   0.491039      0.391550    299.800237      0.391550     769.40
  10.204873   0.485107      0.391537    307.944187      0.391537     772.39
  10.205302   0.479175      0.391525    316.325576      0.391525     775.41
  10.205728   0.473243      0.391514    324.948334      0.391514     778.44
  10.206149   0.467312      0.391505    333.816195      0.391505     781.49
  10.206567   0.461380      0.391498    342.932671      0.391498     784.55
  10.206982   0.455449      0.391492    352.301024      0.391492     787.64
  10.207392   0.449518      0.391488    361.924236      0.391488     790.74
  10.207799   0.443587      0.391486    371.804976      0.391485     793.85
  10.208203   0.437656      0.391484    381.945565      0.391484     796.99
  10.208603   0.431725      0.391483    392.308399      0.391483     800.14
  10.209000   0.425795      0.391483    402.914641      0.391483     803.31
  10.209393   0.419865      0.391484    413.782434      0.391484     806.49
  10.209782   0.413934      0.391484    424.915035      0.391484     809.70
  10.210169   0.408004      0.391485    436.315766      0.391485     812.91
  10.210552   0.402074      0.391485    447.988031      0.391485     816.15
  10.210931   0.396145      0.391484    459.935344      0.391484     819.40
  10.211307   0.390215      0.391482    472.161350      0.391482     822.67
  10.211680   0.384285      0.391479    484.669858      0.391479     825.95
  10.212050   0.378355      0.391475    497.464873      0.391475     829.25
  10.212417   0.372425      0.391470    510.550624      0.391470     832.57
  10.212780   0.366495      0.391463    523.931611      0.391463     835.90
  10.213140   0.360565      0.391455    537.612633      0.391455     839.25
  10.213497   0.354635      0.391444    551.488582      0.391444     842.61
  10.213851   0.348705      0.391432    565.675524      0.391432     845.99
  10.214202   0.342774      0.391419    580.190882      0.391419     849.39
  10.214550   0.336843      0.391403    595.045466      0.391403     852.80
  10.214894   0.330912      0.391386    610.250268      0.391386     856.23
  10.215236   0.324980      0.391368    625.816433      0.391368     859.68
  10.215575   0.319048      0.391347    641.755236      0.391347     863.14
  10.215910   0.313116      0.391326    658.078049      0.391326     866.62
  10.216243   0.307183      0.391303    674.796307      0.391303     870.12
  10.216573   0.301249      0.391280    691.921471      0.391280     873.64
  10.216900   0.295315      0.391255    709.464987      0.391255     877.17
  10.217224   0.289381      0.391231    727.438240      0.391231     880.72
  10.217545   0.283446      0.391206    745.848612      0.391206     884.29
  10.217864   0.277510      0.391181    764.682732      0.391181     887.88
  10.218179   0.271574      0.391156    783.965078      0.391156     891.49
  10.218492   0.265637      0.391131    803.707850      0.391131     895.12
  10.218802   0.259699      0.391106    823.924274      0.391106     898.76
  10.219110   0.253761      0.391082    844.628687      0.391082     902.43
  10.219415   0.247822      0.391058    865.836632      0.391058     906.11
  10.219717   0.241883      0.391034    887.564959      0.391034     909.81
  10.220016   0.235943      0.391009    909.831931      0.391009     913.53
  10.220313   0.230002      0.390985    932.657335      0.390985     917.28
  10.220607   0.224060      0.390959    956.062607      0.390959     921.03
  10.220899   0.218118      0.390932    980.070953      0.390932     924.81
  10.221188   0.212175      0.390904   1004.707493      0.390904     928.61
  10.221474   0.206231      0.390874   1030.178922      0.390873     932.42
  10.221758   0.200286      0.390841   1056.647497      0.390841     936.26
  10.222040   0.194341      0.390807   1083.847005      0.390807     940.11
  10.222319   0.188394      0.390769   1111.790942      0.390769     943.98
  10.222595   0.182447      0.390729   1140.492177      0.390729     947.86
  10.222870   0.176498      0.390685   1169.962877      0.390685     951.77
  10.223141   0.170549      0.390639   1200.214419      0.390639     955.69
  10.223411   0.164598      0.390588   1231.257301      0.390588     959.63
  10.223678   0.158645      0.390534   1263.101056      0.390534     963.59
  10.223942   0.152692      0.390476   1295.754150      0.390476     967.56
  10.224205   0.146737      0.390414   1329.223888      0.390414     971.55
  10.224465   0.140781      0.390348   1363.516306      0.390348     975.56
  10.224723   0.134823      0.390278   1398.636069      0.390278     979.59
  10.224978   0.128863      0.390203   1434.300166      0.390203     983.64
  10.225231   0.122902      0.390123   1470.570656      0.390123     987.70
  10.225482   0.116939      0.390039   1507.666400      0.390039     991.78
  10.225731   0.110975      0.389950   1545.607299      0.389950     995.87
  10.225978   0.105008      0.389856   1584.414346      0.389856     999.99
  10.226222   0.099039      0.389756   1624.109699      0.389756    1004.12
  10.226464   0.093069      0.389652   1664.716764      0.389652    1008.27
  10.226705   0.087096      0.389542   1706.260278      0.389542    1012.43
  10.226943   0.081121      0.389426   1748.766395      0.389426    1016.62
  10.227179   0.075144      0.389304   1792.262777      0.389304    1020.82
  10.227413   0.069164      0.389177   1836.778686      0.389177    1025.03
  10.227645   0.063182      0.389044   1882.345084      0.389044    1029.27
  10.227874   0.057198      0.388905   1928.994729      0.388905    1033.52
  10.228102   0.051210      0.388760   1976.753824      0.388760    1037.79
  10.228328   0.045221      0.388609   2025.667299      0.388609    1042.08
  10.228552   0.039228      0.388452   2075.777542      0.388452    1046.38
  10.228774   0.033233      0.388289   2127.125735      0.388289    1050.71
  10.228994   0.027235      0.388120   2179.755142      0.388120    1055.05
  10.229212   0.021234      0.387945   2233.711191      0.387945    1059.41
  10.229428   0.015230      0.387764   2289.041548      0.387764    1063.78
  10.229642   0.009223      0.387577   2345.796207      0.387577    1068.18
  10.229855   0.003213      0.387384   2404.027556      0.387384    1072.59
  10.230065  -0.002800      0.387185   2463.790454      0.387185    1077.02
  10.230274  -0.008816      0.386980   2525.142297      0.386980    1081.47
  10.230481  -0.014835      0.386769   2588.143078      0.386769    1085.93
  10.230686  -0.020858      0.386552   2652.855441      0.386552    1090.42
  10.230889  -0.026884      0.386328   2720.291041      0.386329    1094.92
  10.231091  -0.032912      0.386099   2789.753811      0.386099    1099.44
  10.231290  -0.038944      0.385862   2861.111900      0.385863    1103.98
  10.231488  -0.044980      0.385619   2934.391141      0.385620    1108.54
  10.231685  -0.051019      0.385370   3009.615709      0.385370    1113.11
  10.231879  -0.057060      0.385113   3086.808023      0.385113    1117.71
  10.232072  -0.063106      0.384848   3165.988636      0.384848    1122.32
  10.232264  -0.069154      0.384576   3247.176141      0.384576    1126.94
  10.232453  -0.075206      0.384296   3330.387084      0.384296    1131.59
  10.232641  -0.081262      0.384008   3415.635876      0.384008    1136.25
  10.232827  -0.087321      0.383711   3502.934725      0.383712    1140.93
  10.233012  -0.093383      0.383407   3592.293564      0.383407    1145.62
  10.233195  -0.099449      0.383093   3683.719994      0.383093    1150.33
  10.233377  -0.105518      0.382771   3776.988943      0.382771    1155.06
  10.233557  -0.111590      0.382440   3872.296805      0.382440    1159.80
  10.233735  -0.117666      0.382100   3969.690319      0.382100    1164.56
  10.233912  -0.123746      0.381751   4069.178048      0.381751    1169.33
  10.234087  -0.129828      0.381394   4170.766619      0.381394    1174.12
  10.234261  -0.135915      0.381029   4274.460698      0.381029    1178.93
  10.234433  -0.142004      0.380655   4380.262975      0.380656    1183.75
  10.234604  -0.148097      0.380274   4488.174138      0.380274    1188.59
  10.234774  -0.154193      0.379886   4598.192870      0.379886    1193.45
  10.234942  -0.160293      0.379490   4710.315827      0.379490    1198.33
  10.235108  -0.166396      0.379088   4824.537633      0.379088    1203.22
  10.235273  -0.172501      0.378680   4940.850861      0.378680    1208.13
  10.235437  -0.178610      0.378267   5059.246020      0.378267    1213.06
  10.235599  -0.184722      0.377849   5178.486479      0.377849    1218.02
  10.235760  -0.190837      0.377427   5299.312414      0.377427    1222.99
  10.235919  -0.196954      0.377002   5422.216474      0.377002    1227.98
  10.236077  -0.203074      0.376574   5547.246187      0.376574    1233.00
  10.236234  -0.209196      0.376145   5674.451371      0.376145    1238.04
  10.236389  -0.215320      0.375714   5803.884199      0.375715    1243.10
  10.236543  -0.221447      0.375284   5935.599266      0.375284    1248.19
  10.236696  -0.227575      0.374854   6069.653655      0.374854    1253.30
  10.236848  -0.233705      0.374426   6206.107003      0.374426    1258.44
  10.236998  -0.239837      0.374000   6345.021563      0.374000    1263.61
  10.237147  -0.245970      0.373577   6486.462266      0.373577    1268.80
  10.237294  -0.252104      0.373158   6630.496784      0.373158    1274.02
  10.237441  -0.258239      0.372744   6777.195576      0.372745    1279.28
  10.237586  -0.264374      0.372336   6926.787904      0.372336    1284.56
  10.237729  -0.270510      0.371934   7079.425330      0.371935    1289.88
  10.237872  -0.276645      0.371540   7234.950718      0.371540    1295.22
  10.238013  -0.282781      0.371153   7393.431893      0.371153    1300.60
  10.238154  -0.288916      0.370775   7554.938752      0.370775    1306.02
  10.238293  -0.295051      0.370406   7719.543258      0.370406    1311.47
  10.238430  -0.301184      0.370047   7887.319448      0.370047    1316.95
  10.238567  -0.307317      0.369698   8058.343415      0.369698    1322.47
  10.238702  -0.313448      0.369360   8232.693291      0.369360    1328.03
  10.238837  -0.319577      0.369033   8410.449216      0.369034    1333.62
  10.238970  -0.325704      0.368719   8591.693301      0.368719    1339.25
  10.239102  -0.331828      0.368416   8776.509570      0.368416    1344.92
  10.239233  -0.337950      0.368126   8964.983898      0.368126    1350.63
  10.239362  -0.344070      0.367848   9157.203930      0.367848    1356.38
  10.239491  -0.350186      0.367584   9356.593489      0.367584    1362.17
  10.239618  -0.356298      0.367332   9560.287292      0.367332    1367.99
  10.239745  -0.362407      0.367093   9767.852988      0.367093    1373.86
  10.239870  -0.368513      0.366867   9979.247438      0.366867    1379.76
  10.239994  -0.374614      0.366654  10194.423435      0.366654    1385.71
  10.240117  -0.380711      0.366454  10413.329872      0.366454    1391.69
  10.240239  -0.386803      0.366266  10635.911901      0.366266    1397.71
  10.240360  -0.392890      0.366091  10862.111059      0.366091    1403.78
  10.240480  -0.398973      0.365928  11091.865372      0.365928    1409.88
  10.240599  -0.405050      0.365776  11325.109412      0.365777    1416.01
  10.240717  -0.411122      0.365636  11561.774316      0.365636    1422.19
  10.240834  -0.417189      0.365507  11801.787735      0.365507    1428.40
  10.240950  -0.423250      0.365388  12045.073731      0.365388    1434.65
  10.241064  -0.429305      0.365279  12290.056842      0.365279    1440.94
  10.241178  -0.435354      0.365179  12533.549271      0.365179    1447.26
  10.241291  -0.441398      0.365087  12780.170213      0.365088    1453.62
  10.241403  -0.447435      0.365004  13030.029183      0.365004    1460.01
  10.241513  -0.453466      0.364928  13283.239422      0.364929    1466.43
  10.241623  -0.459490      0.364859  13539.918094      0.364859    1472.88
  10.241732  -0.465508      0.364796  13800.186484      0.364796    1479.37
  10.241840  -0.471520      0.364738  14064.170189      0.364738    1485.89
  10.241947  -0.477525      0.364684  14331.999299      0.364684    1492.43
  10.242053  -0.483523      0.364634  14603.808573      0.364634    1499.01
  10.242158  -0.489515      0.364587  14879.737586      0.364587    1505.61
  10.242262  -0.495500      0.364541  15159.930863      0.364542    1512.24
  10.242365  -0.501479      0.364498  15444.537975      0.364498    1518.89
  10.242467  -0.507451      0.364454  15733.713611      0.364455    1525.57
  10.242568  -0.513416      0.364411  16031.796476      0.364411    1532.27
  10.242668  -0.519375      0.364366  16338.327551      0.364366    1539.00
  10.242768  -0.525328      0.364319  16649.696731      0.364320    1545.74
  10.242866  -0.531273      0.364270  16965.809797      0.364270    1552.51
  10.242964  -0.537213      0.364217  17286.567269      0.364218    1559.29
  10.243061  -0.543146      0.364160  17611.864395      0.364161    1566.10
  10.243157  -0.549073      0.364098  17941.591017      0.364099    1572.92
  10.243252  -0.554993      0.364030  18275.631314      0.364031    1579.75
  10.243346  -0.560908      0.363956  18613.863399      0.363957    1586.60
  10.243439  -0.566816      0.363875  18956.158748      0.363875    1593.47
  10.243531  -0.572719      0.363786  19302.381445      0.363786    1600.35
  10.243623  -0.578615      0.363688  19652.387214      0.363689    1607.24
  10.243714  -0.584506      0.363581  20006.022221      0.363582    1614.14
  10.243804  -0.590392      0.363465  20363.121598      0.363465    1621.05
  10.243893  -0.596272      0.363338  20713.544353      0.363338    1627.97
  10.243981  -0.602147      0.363200  21064.571902      0.363200    1634.90
  10.244068  -0.608016      0.363050  21418.755889      0.363051    1641.83
  10.244155  -0.613881      0.362889  21776.273490      0.362890    1648.78
  10.244241  -0.619740      0.362715  22137.313209      0.362716    1655.73
  10.244326  -0.625595      0.362528  22502.076910      0.362529    1662.68
  10.244410  -0.631446      0.362328  22870.781895      0.362328    1669.64
  10.244493  -0.637292      0.362113  23243.662986      0.362114    1676.60
  10.244576  -0.643133      0.361885  23620.974591      0.361885    1683.57
  10.244658  -0.648971      0.361641  24002.992711      0.361642    1690.54
  10.244739  -0.654805      0.361383  24390.016868      0.361384    1697.51
  10.244819  -0.660635      0.361110  24782.371867      0.361110    1704.48
  10.244899  -0.666461      0.360820  25180.409370      0.360821    1711.46
  10.244977  -0.672284      0.360515  25584.511485      0.360516    1718.43
  10.245056  -0.678104      0.360194  26009.212259      0.360195    1725.40
  10.245133  -0.683921      0.359857  26440.955836      0.359858    1732.38
  10.245210  -0.689735      0.359503  26879.720958      0.359504    1739.35
  10.245285  -0.695546      0.359132  27325.477851      0.359133    1746.32
  10.245361  -0.701355      0.358745  27778.188291      0.358746    1753.29
  10.245435  -0.707161      0.358340  28237.805648      0.358341    1760.26
  10.245509  -0.712965      0.357919  28704.274929      0.357920    1767.22
  10.245582  -0.718768      0.357481  29177.532787      0.357481    1774.19
  10.245654  -0.724568      0.357025  29657.507502      0.357026    1781.15
  10.245726  -0.730367      0.356552  30144.118917      0.356553    1788.11
  10.245797  -0.736164      0.356062  30637.278319      0.356063    1795.06
  10.245867  -0.741960      0.355555  31136.888276      0.355556    1802.02
  10.245937  -0.747755      0.355031  31642.842549      0.355032    1808.97
  10.245985  -0.751789      0.354656  31998.752962      0.354657    1813.80
